// Start Time: Unknown
// Update Rate: 40.0Hz
// Filter Profile: human (46.1)
// Firmware Version: 4.6.0
PacketCounter	SampleTimeFine	Acc_X	Acc_Y	Acc_Z	Gyr_X	Gyr_Y	Gyr_Z	Mag_X	Mag_Y	Mag_Z	Quat_q0	Quat_q1	Quat_q2	Quat_q3
15344		5.626786	1.118956	7.844183	0.005884	-0.001531	-0.005706	-0.652832	0.544434	-0.513916	0.522512	-0.221148	-0.217952	-0.794085
15345		5.631985	1.128227	7.858132	0.006060	-0.002175	-0.004361	-0.642090	0.538086	-0.523438	0.522480	-0.221118	-0.218038	-0.794091
15346		5.630261	1.117531	7.878128	0.005586	-0.000096	-0.004876	-0.654053	0.540039	-0.517578	0.522569	-0.220961	-0.218037	-0.794077
15347		5.635586	1.122902	7.847689	0.005485	-0.001000	-0.005918	-0.646484	0.542236	-0.514648	0.522518	-0.220922	-0.218117	-0.794099
15348		5.621672	1.122697	7.873169	0.005362	-0.000208	-0.003743	-0.660156	0.546387	-0.518555	0.522536	-0.220847	-0.218156	-0.794097
15349		5.622472	1.093457	7.881948	0.006237	-0.002518	-0.006017	-0.647217	0.541016	-0.512451	0.522465	-0.220830	-0.218263	-0.794119
15350		5.638078	1.107390	7.856751	0.007915	-0.005893	-0.007870	-0.649170	0.550781	-0.511719	0.522414	-0.220799	-0.218383	-0.794128
15351		5.625055	1.142078	7.850721	0.007792	-0.004799	-0.008696	-0.639404	0.536621	-0.513184	0.522372	-0.220749	-0.218487	-0.794141
15352		5.615859	1.133338	7.865439	0.004736	-0.008691	-0.004726	-0.653320	0.547119	-0.514648	0.522375	-0.220740	-0.218565	-0.794121
15353		5.634160	1.125366	7.850062	0.006717	-0.009053	-0.006457	-0.647217	0.533203	-0.518066	0.522325	-0.220777	-0.218679	-0.794111
15354		5.633743	1.115307	7.869073	0.007595	-0.006913	-0.007781	-0.650146	0.543457	-0.514404	0.522265	-0.220713	-0.218825	-0.794129
15355		5.636832	1.099327	7.857097	0.006516	-0.001659	-0.009638	-0.649658	0.537109	-0.511230	0.522215	-0.220671	-0.218886	-0.794157
15356		5.625408	1.122880	7.863589	0.010928	0.002290	-0.014420	-0.658691	0.539551	-0.517578	0.522099	-0.220540	-0.219014	-0.794234
15357		5.626902	1.145891	7.866089	0.009202	0.000460	-0.011040	-0.655518	0.539307	-0.518311	0.522002	-0.220483	-0.219110	-0.794287
15358		5.627792	1.158556	7.867058	0.008604	-0.001418	-0.007330	-0.653809	0.541016	-0.517334	0.521955	-0.220430	-0.219197	-0.794309
15359		5.634196	1.140161	7.868622	0.005770	-0.000445	-0.006541	-0.649170	0.528809	-0.515625	0.521922	-0.220385	-0.219239	-0.794332
15360		5.619745	1.126884	7.848088	0.008055	-0.002544	-0.006101	-0.652588	0.542725	-0.512451	0.521854	-0.220275	-0.219377	-0.794368
15361		5.631041	1.153710	7.877531	0.007429	-0.002122	-0.005178	-0.651611	0.542969	-0.526123	0.521832	-0.220274	-0.219426	-0.794369
15362		5.630143	1.139013	7.852700	0.004070	-0.004273	-0.003373	-0.646729	0.543457	-0.509766	0.521885	-0.220238	-0.219430	-0.794343
15363		5.627272	1.149287	7.861878	0.005750	-0.003495	-0.001274	-0.656738	0.536133	-0.516602	0.521917	-0.220258	-0.219458	-0.794309
15364		5.611978	1.162842	7.853545	0.002314	-0.004099	0.000226	-0.649170	0.542969	-0.515625	0.521888	-0.220290	-0.219500	-0.794308
15365		5.626764	1.131354	7.857976	0.002716	-0.004631	0.000437	-0.649414	0.544678	-0.516357	0.521939	-0.220317	-0.219497	-0.794268
15366		5.624724	1.143563	7.845541	0.002364	-0.003646	0.000746	-0.655762	0.542236	-0.507080	0.522008	-0.220342	-0.219473	-0.794222
15367		5.622796	1.121633	7.863979	0.001136	-0.004800	0.002381	-0.657227	0.548096	-0.517822	0.521985	-0.220477	-0.219485	-0.794197
15368		5.635849	1.111530	7.857856	0.003118	-0.004867	-0.002355	-0.645020	0.536621	-0.520020	0.522002	-0.220547	-0.219475	-0.794168
15369		5.624676	1.123208	7.862410	0.004876	-0.005340	-0.002953	-0.651123	0.544678	-0.507324	0.522032	-0.220464	-0.219526	-0.794158
15370		5.635199	1.132232	7.867371	0.002266	-0.004553	-0.000295	-0.656494	0.544434	-0.513184	0.522034	-0.220578	-0.219517	-0.794128
15371		5.636263	1.133111	7.866482	0.005456	-0.006514	-0.001396	-0.657471	0.539795	-0.517090	0.522023	-0.220666	-0.219562	-0.794097
15372		5.646625	1.135686	7.848305	0.005781	-0.005499	-0.001492	-0.655762	0.541992	-0.513428	0.521997	-0.220689	-0.219633	-0.794088
15373		5.619266	1.119794	7.852993	0.007087	-0.005893	-0.002822	-0.655518	0.543457	-0.508789	0.521967	-0.220738	-0.219708	-0.794074
15374		5.626957	1.141502	7.845991	0.007413	-0.004878	-0.002918	-0.656494	0.540771	-0.512939	0.521925	-0.220824	-0.219769	-0.794061
15375		5.635835	1.138733	7.871170	0.005057	-0.005983	-0.001609	-0.654541	0.547607	-0.510254	0.521885	-0.220890	-0.219829	-0.794052
15376		5.632775	1.135212	7.834114	0.005638	-0.007156	-0.000052	-0.659180	0.542236	-0.514648	0.521904	-0.221023	-0.219836	-0.794000
15377		5.600988	1.155615	7.860815	0.002783	-0.008932	0.003010	-0.650635	0.537842	-0.516113	0.521896	-0.221151	-0.219880	-0.793958
15378		5.637552	1.112174	7.863539	0.005071	-0.010737	0.000444	-0.646729	0.546143	-0.514893	0.521909	-0.221169	-0.219965	-0.793921
15379		5.632785	1.127507	7.836996	0.008460	-0.010591	-0.001583	-0.654053	0.541260	-0.512695	0.522004	-0.221205	-0.219995	-0.793840
15380		5.653196	1.142530	7.868547	0.005946	-0.008600	-0.000885	-0.659668	0.540039	-0.518799	0.521991	-0.221276	-0.220064	-0.793810
15381		5.640229	1.135170	7.870331	0.005659	-0.004410	-0.002324	-0.655273	0.548828	-0.520020	0.521958	-0.221257	-0.220145	-0.793814
15382		5.643655	1.117744	7.858370	0.004434	-0.005563	-0.000687	-0.654297	0.538818	-0.508301	0.522055	-0.221279	-0.220115	-0.793753
15383		5.672140	1.126655	7.850389	0.005968	-0.006145	-0.000152	-0.653809	0.535889	-0.515869	0.522004	-0.221368	-0.220188	-0.793741
15384		5.651421	1.130167	7.849198	0.004355	-0.004015	-0.000994	-0.656494	0.542480	-0.508057	0.521981	-0.221324	-0.220258	-0.793750
15385		5.624966	1.130269	7.878635	0.003692	-0.001295	-0.002858	-0.652588	0.533691	-0.510986	0.521921	-0.221424	-0.220256	-0.793761
15386		5.651017	1.122817	7.847147	0.004823	-0.001344	-0.002533	-0.647217	0.539062	-0.518311	0.521850	-0.221383	-0.220328	-0.793800
15387		5.625999	1.135671	7.856311	0.005451	-0.001769	-0.003459	-0.652100	0.540527	-0.510498	0.521941	-0.221245	-0.220328	-0.793778
15388		5.622383	1.139093	7.842819	0.004276	-0.002468	-0.001301	-0.648682	0.542236	-0.522217	0.521943	-0.221288	-0.220322	-0.793766
15389		5.650552	1.114205	7.866138	0.004307	-0.004471	-0.001515	-0.658203	0.540039	-0.515381	0.522093	-0.221163	-0.220303	-0.793709
15390		5.631232	1.129960	7.844771	0.004003	-0.003029	-0.000685	-0.653076	0.534180	-0.521973	0.522063	-0.221181	-0.220345	-0.793711
15391		5.644303	1.127121	7.861776	0.002418	-0.002903	-0.001741	-0.648682	0.543701	-0.515869	0.522072	-0.221020	-0.220408	-0.793733
15392		5.629933	1.150260	7.854776	0.004358	-0.004017	-0.000995	-0.654541	0.550537	-0.511475	0.522201	-0.221008	-0.220361	-0.793664
15393		5.641808	1.130936	7.847419	0.003407	-0.004607	0.000027	-0.646729	0.546387	-0.511963	0.522308	-0.221174	-0.220271	-0.793572
15394		5.655738	1.130931	7.842580	0.005086	-0.003534	-0.000882	-0.650146	0.544678	-0.520508	0.522459	-0.221218	-0.220186	-0.793484
15395		5.634685	1.134239	7.841673	0.003780	-0.003137	0.000450	-0.659668	0.541992	-0.516846	0.522626	-0.221138	-0.220134	-0.793411
15396		5.638090	1.123315	7.853018	0.003874	-0.001937	-0.001514	-0.659424	0.542725	-0.511963	0.522603	-0.221145	-0.220176	-0.793413
15397		5.630873	1.135306	7.849476	0.002792	-0.001433	-0.001318	-0.655029	0.539307	-0.519287	0.522555	-0.221241	-0.220189	-0.793414
15398		5.644433	1.135121	7.844926	0.003327	-0.003060	-0.000281	-0.649170	0.535156	-0.508301	0.522577	-0.221169	-0.220224	-0.793409
15399		5.650283	1.143375	7.858524	0.003309	-0.005518	-0.001014	-0.657227	0.542969	-0.510498	0.522513	-0.221236	-0.220267	-0.793421
15400		5.638522	1.107133	7.848277	0.002905	-0.004986	-0.001224	-0.654785	0.540771	-0.517090	0.522471	-0.221380	-0.220280	-0.793405
15401		5.628362	1.128287	7.854134	0.004989	-0.004445	-0.001924	-0.649902	0.542969	-0.516846	0.522488	-0.221349	-0.220325	-0.793390
15402		5.644402	1.147722	7.851731	0.002725	-0.004347	-0.002571	-0.648193	0.550293	-0.510742	0.522578	-0.221320	-0.220287	-0.793349
15403		5.632296	1.149191	7.855059	0.002591	-0.006293	0.001876	-0.656250	0.541992	-0.517822	0.522772	-0.221481	-0.220148	-0.793215
15404		5.635445	1.128350	7.864655	0.004624	-0.006207	0.000656	-0.654541	0.541748	-0.509766	0.522805	-0.221478	-0.220201	-0.793180
15405		5.628856	1.133468	7.837426	0.005385	-0.007728	0.000555	-0.656738	0.536865	-0.510010	0.522790	-0.221614	-0.220250	-0.793138
15406		5.654988	1.120225	7.848327	0.006394	-0.006973	0.003055	-0.655273	0.537109	-0.510986	0.522717	-0.221709	-0.220368	-0.793127
15407		5.651485	1.117801	7.877280	0.005469	-0.009278	0.000861	-0.648682	0.535156	-0.510986	0.522645	-0.221798	-0.220483	-0.793117
15408		5.645371	1.122680	7.849736	0.003437	-0.009364	0.002082	-0.658936	0.539062	-0.509766	0.522645	-0.221839	-0.220543	-0.793090
15409		5.660848	1.125230	7.822523	0.004834	-0.008564	-0.001217	-0.651367	0.543701	-0.510986	0.522522	-0.221982	-0.220652	-0.793100
15410		5.664539	1.111765	7.854919	0.002404	-0.005368	-0.002477	-0.651611	0.549316	-0.513428	0.522562	-0.222065	-0.220608	-0.793062
15411		5.649299	1.125000	7.846577	0.001926	-0.003575	0.000010	-0.651123	0.544922	-0.525635	0.522715	-0.222145	-0.220484	-0.792974
15412		5.640334	1.117311	7.840376	0.002654	-0.003091	0.000122	-0.646973	0.537109	-0.507812	0.522920	-0.221952	-0.220437	-0.792906
15413		5.642155	1.127844	7.840921	0.005398	-0.004983	-0.001720	-0.650879	0.546143	-0.513428	0.522913	-0.221985	-0.220461	-0.792894
15414		5.650424	1.117804	7.843434	0.004010	-0.003035	-0.000693	-0.648682	0.540039	-0.517822	0.523034	-0.222012	-0.220397	-0.792825
15415		5.656534	1.128993	7.835551	0.003827	-0.002397	-0.002040	-0.656494	0.543701	-0.519043	0.523124	-0.221884	-0.220391	-0.792803
15416		5.659619	1.118643	7.847086	0.006100	0.000254	-0.003667	-0.648193	0.539795	-0.518311	0.523167	-0.221777	-0.220419	-0.792796
15417		5.668090	1.118519	7.851398	0.002884	-0.000238	-0.003287	-0.648682	0.542236	-0.512695	0.523251	-0.221626	-0.220394	-0.792791
15418		5.668969	1.129691	7.852522	0.007051	0.000842	-0.004692	-0.657715	0.535889	-0.517334	0.523316	-0.221562	-0.220375	-0.792771
15419		5.625271	1.136068	7.851985	0.002752	0.000855	-0.004114	-0.660889	0.548828	-0.512695	0.523207	-0.221459	-0.220457	-0.792849
15420		5.646853	1.134639	7.852192	0.003117	-0.000420	-0.001420	-0.652832	0.542480	-0.513672	0.523225	-0.221584	-0.220420	-0.792813
15421		5.637297	1.127351	7.846370	0.002613	-0.000799	-0.002670	-0.657715	0.537354	-0.506592	0.523250	-0.221586	-0.220392	-0.792803
15422		5.654512	1.125351	7.855049	0.003291	-0.000771	-0.003077	-0.652588	0.543457	-0.508301	0.523090	-0.221697	-0.220450	-0.792862
15423		5.641343	1.127553	7.859065	0.005424	0.000224	-0.003261	-0.661621	0.542725	-0.510254	0.523095	-0.221766	-0.220419	-0.792848
15424		5.645703	1.129511	7.850400	0.004845	0.001108	-0.001814	-0.654053	0.540039	-0.514404	0.523011	-0.221850	-0.220454	-0.792869
15425		5.635725	1.119774	7.866122	0.003964	-0.003491	-0.001212	-0.652588	0.542969	-0.520020	0.523012	-0.221842	-0.220487	-0.792862
15426		5.641491	1.124350	7.835185	0.007587	-0.003533	-0.001384	-0.655029	0.545410	-0.513916	0.523116	-0.221730	-0.220523	-0.792815
15427		5.667642	1.121517	7.847947	0.005005	-0.001706	-0.004204	-0.655762	0.533203	-0.516602	0.523141	-0.221751	-0.220511	-0.792795
15428		5.646565	1.132482	7.870240	0.005782	-0.000766	-0.003572	-0.659424	0.541748	-0.515381	0.523047	-0.221622	-0.220639	-0.792858
15429		5.629358	1.136996	7.861190	0.005931	0.000602	-0.002014	-0.652588	0.547607	-0.519531	0.523022	-0.221598	-0.220685	-0.792868
15430		5.649442	1.119140	7.837261	0.002664	-0.000345	-0.002151	-0.653076	0.540039	-0.511719	0.523160	-0.221541	-0.220600	-0.792817
15431		5.645634	1.126589	7.868415	0.004917	-0.002904	-0.002239	-0.657715	0.540527	-0.518555	0.523145	-0.221569	-0.220625	-0.792812
15432		5.650718	1.128266	7.859266	0.003560	-0.002960	-0.001423	-0.653809	0.544922	-0.514648	0.523138	-0.221527	-0.220675	-0.792814
15433		5.660185	1.130363	7.841649	0.002566	-0.001258	-0.003191	-0.658447	0.541260	-0.512207	0.523180	-0.221546	-0.220628	-0.792794
15434		5.643608	1.141479	7.855428	0.005155	-0.000339	-0.002647	-0.651611	0.537109	-0.508301	0.523129	-0.221579	-0.220667	-0.792808
15435		5.641594	1.123289	7.852819	0.001432	-0.001210	-0.003512	-0.660889	0.550293	-0.511963	0.523059	-0.221631	-0.220660	-0.792842
15436		5.646088	1.124727	7.844126	0.002076	0.000823	-0.003710	-0.649170	0.542480	-0.515137	0.523061	-0.221753	-0.220587	-0.792827
15437		5.645557	1.125805	7.844354	0.002991	0.003416	-0.004526	-0.650635	0.540283	-0.510742	0.523128	-0.221660	-0.220510	-0.792830
15438		5.627733	1.134128	7.880323	0.001719	0.001812	-0.003401	-0.654053	0.540039	-0.518799	0.523129	-0.221658	-0.220454	-0.792846
15439		5.640187	1.127051	7.853291	0.003576	-0.000498	-0.000693	-0.649414	0.537354	-0.511230	0.523170	-0.221565	-0.220466	-0.792841
15440		5.639268	1.118430	7.851862	0.005339	-0.000975	-0.001299	-0.647705	0.541504	-0.510254	0.523178	-0.221539	-0.220480	-0.792839
15441		5.647756	1.118050	7.856205	0.004219	0.001535	-0.000891	-0.654785	0.548096	-0.513184	0.523249	-0.221533	-0.220411	-0.792813
15442		5.647563	1.119323	7.856162	0.005381	-0.000236	-0.003785	-0.654053	0.545410	-0.517090	0.523299	-0.221573	-0.220366	-0.792782
15443		5.626995	1.132803	7.856813	0.004787	-0.001813	-0.003068	-0.646484	0.538330	-0.522949	0.523354	-0.221550	-0.220353	-0.792755
15444		5.619273	1.142525	7.874803	0.003332	-0.002782	-0.003290	-0.653320	0.544922	-0.511475	0.523441	-0.221365	-0.220358	-0.792748
15445		5.651532	1.111415	7.866775	0.003060	-0.003342	-0.002672	-0.648438	0.536621	-0.509521	0.523457	-0.221451	-0.220328	-0.792722
15446		5.654858	1.134471	7.846806	0.004503	-0.004836	-0.003179	-0.647705	0.539062	-0.511475	0.523417	-0.221483	-0.220365	-0.792729
15447		5.646808	1.137259	7.841801	0.004837	-0.001357	-0.002550	-0.654053	0.549316	-0.511963	0.523442	-0.221463	-0.220356	-0.792720
15448		5.623450	1.125991	7.883197	0.004601	-0.003923	-0.002141	-0.650391	0.539307	-0.516846	0.523506	-0.221570	-0.220311	-0.792661
15449		5.623795	1.120267	7.859548	0.004911	-0.005369	-0.002970	-0.648193	0.543701	-0.512695	0.523523	-0.221524	-0.220357	-0.792650
15450		5.629345	1.121755	7.850085	0.001061	-0.005431	-0.001657	-0.654541	0.545898	-0.515137	0.523584	-0.221587	-0.220301	-0.792608
15451		5.644433	1.131259	7.846310	0.004330	-0.004483	-0.001523	-0.647949	0.539795	-0.514648	0.523630	-0.221631	-0.220298	-0.792566
15452		5.642458	1.110614	7.864994	0.005196	-0.002348	-0.002861	-0.655273	0.534912	-0.517822	0.523670	-0.221574	-0.220306	-0.792553
15453		5.626821	1.124465	7.856782	0.004197	-0.003392	-0.002353	-0.651611	0.542969	-0.516113	0.523605	-0.221499	-0.220402	-0.792590
15454		5.645201	1.125269	7.843306	0.003876	-0.004409	-0.002253	-0.651611	0.540283	-0.512207	0.523649	-0.221497	-0.220405	-0.792561
15455		5.640991	1.123195	7.872829	0.004284	-0.004942	-0.002044	-0.655518	0.542236	-0.517090	0.523642	-0.221536	-0.220430	-0.792547
15456		5.641520	1.117149	7.849083	0.003740	-0.006061	-0.000806	-0.659424	0.541748	-0.512695	0.523655	-0.221556	-0.220471	-0.792522
15457		5.643542	1.127840	7.849400	0.005012	-0.004458	-0.001934	-0.655762	0.539551	-0.513428	0.523596	-0.221627	-0.220536	-0.792523
15458		5.631310	1.130046	7.852764	0.004915	-0.005373	-0.002973	-0.653076	0.541504	-0.510498	0.523544	-0.221659	-0.220605	-0.792529
15459		5.643308	1.111328	7.845337	0.005644	-0.004889	-0.002863	-0.648682	0.545166	-0.510986	0.523525	-0.221720	-0.220638	-0.792515
15460		5.650918	1.132452	7.838154	0.004422	-0.006035	-0.001216	-0.645996	0.541992	-0.510742	0.523597	-0.221799	-0.220607	-0.792454
15461		5.647415	1.133056	7.845862	0.005422	-0.004992	-0.001726	-0.648438	0.547363	-0.523438	0.523663	-0.221826	-0.220592	-0.792407
15462		5.625571	1.126844	7.843670	0.003657	-0.004514	-0.001117	-0.652344	0.538330	-0.511475	0.523831	-0.221738	-0.220549	-0.792333
15463		5.652468	1.123623	7.855954	0.005869	-0.007532	-0.001726	-0.654053	0.534668	-0.517578	0.523796	-0.221788	-0.220627	-0.792320
15464		5.636451	1.127980	7.846073	0.005646	-0.004891	-0.002866	-0.661377	0.542969	-0.517090	0.523742	-0.221715	-0.220736	-0.792346
15465		5.650626	1.128402	7.840919	0.004376	-0.006495	-0.001737	-0.646484	0.538574	-0.517334	0.523702	-0.221763	-0.220813	-0.792337
15466		5.650157	1.117174	7.860538	0.003659	-0.004515	-0.001118	-0.654541	0.536865	-0.515381	0.523773	-0.221696	-0.220819	-0.792307
15467		5.642289	1.119735	7.855444	0.004881	-0.003370	-0.002768	-0.654053	0.548828	-0.506592	0.523730	-0.221661	-0.220889	-0.792326
15468		5.658082	1.139699	7.852892	0.006647	-0.003849	-0.003378	-0.650146	0.547607	-0.513428	0.523750	-0.221801	-0.220868	-0.792280
15469		5.643855	1.125447	7.832533	0.004794	-0.001821	-0.003079	-0.652832	0.540527	-0.520508	0.523837	-0.221816	-0.220817	-0.792232
15470		5.652403	1.122702	7.858135	0.004203	-0.003397	-0.002358	-0.643799	0.541992	-0.514893	0.523873	-0.221735	-0.220850	-0.792222
15471		5.642705	1.108590	7.829214	0.004572	-0.001922	-0.001940	-0.657959	0.536133	-0.517334	0.523984	-0.221677	-0.220808	-0.792177
15472		5.657768	1.125581	7.848571	0.002882	-0.002717	-0.004026	-0.653564	0.540283	-0.514893	0.523894	-0.221635	-0.220883	-0.792227
15473		5.653012	1.118971	7.833980	0.003485	-0.001417	-0.001740	-0.656494	0.540039	-0.519775	0.523900	-0.221618	-0.220889	-0.792226
15474		5.640670	1.127866	7.860741	0.003485	-0.001417	-0.001740	-0.647461	0.537354	-0.515625	0.523905	-0.221553	-0.220921	-0.792232
15475		5.657817	1.118906	7.846215	0.003885	-0.004416	-0.002258	-0.647217	0.541504	-0.517822	0.523931	-0.221511	-0.220943	-0.792220
15476		5.636735	1.122512	7.845383	0.005156	-0.002813	-0.003390	-0.656738	0.537842	-0.520020	0.524007	-0.221438	-0.220944	-0.792190
15477		5.632773	1.123310	7.853416	0.004157	-0.003857	-0.002879	-0.657471	0.544189	-0.520264	0.523972	-0.221382	-0.221017	-0.792209
15478		5.655336	1.122195	7.852825	0.004703	-0.005481	-0.001839	-0.647949	0.538818	-0.517822	0.523999	-0.221377	-0.221062	-0.792180
15479		5.659619	1.114247	7.842314	0.004255	-0.002941	-0.001841	-0.656738	0.535889	-0.522217	0.524055	-0.221309	-0.221071	-0.792159
15480		5.639534	1.127637	7.842635	0.007110	-0.003927	-0.002654	-0.656738	0.546631	-0.515869	0.524025	-0.221203	-0.221187	-0.792176
15481		5.645149	1.136617	7.856264	0.002254	-0.002288	-0.003098	-0.651367	0.537354	-0.513916	0.524047	-0.221246	-0.221161	-0.792157
15482		5.652755	1.119506	7.836110	0.005025	-0.004465	-0.001942	-0.646240	0.533936	-0.519043	0.524035	-0.221245	-0.221206	-0.792153
15483		5.635980	1.121027	7.848179	0.004297	-0.004950	-0.002050	-0.650635	0.539307	-0.521240	0.524062	-0.221155	-0.221255	-0.792146
15484		5.644766	1.113631	7.829048	0.004208	-0.003401	-0.002362	-0.654785	0.543457	-0.509766	0.524111	-0.221073	-0.221282	-0.792129
15485		5.641594	1.123845	7.838433	0.003301	-0.000786	-0.003092	-0.651855	0.542480	-0.509521	0.524096	-0.221142	-0.221256	-0.792127
15486		5.649534	1.113790	7.841290	0.003986	-0.003501	-0.001222	-0.649414	0.541504	-0.520752	0.524109	-0.221222	-0.221243	-0.792100
15487		5.652245	1.134161	7.842935	0.004618	-0.003934	-0.002152	-0.646729	0.535889	-0.513916	0.524185	-0.221156	-0.221257	-0.792064
15488		5.660673	1.123878	7.845474	0.001581	-0.005056	-0.000407	-0.647949	0.538086	-0.515381	0.524204	-0.221164	-0.221255	-0.792050
15489		5.643483	1.118039	7.834647	0.006983	-0.005579	-0.001207	-0.651611	0.536133	-0.519775	0.524245	-0.221140	-0.221308	-0.792015
15490		5.649180	1.126499	7.848289	0.000866	-0.000606	0.000938	-0.648193	0.547363	-0.513428	0.524277	-0.221071	-0.221296	-0.792016
15491		5.648712	1.117247	7.846697	0.002941	-0.005005	-0.001230	-0.650635	0.538574	-0.512451	0.524378	-0.221138	-0.221247	-0.791944
15492		5.661189	1.105147	7.862289	0.005125	-0.003550	-0.000906	-0.654785	0.540283	-0.512451	0.524384	-0.221155	-0.221271	-0.791929
15493		5.639519	1.141830	7.830205	0.002851	-0.003455	-0.001541	-0.649658	0.549072	-0.516602	0.524357	-0.221208	-0.221280	-0.791929
15494		5.650780	1.119979	7.844819	0.004037	-0.003044	-0.000705	-0.655273	0.537598	-0.504639	0.524486	-0.221228	-0.221230	-0.791852
15495		5.654430	1.109256	7.856183	0.004037	-0.003044	-0.000705	-0.650146	0.536377	-0.518799	0.524402	-0.221343	-0.221252	-0.791870
15496		5.631393	1.133740	7.844590	0.003165	-0.004907	-0.002370	-0.648193	0.537842	-0.517090	0.524403	-0.221297	-0.221293	-0.791870
15497		5.642334	1.105119	7.836146	0.006168	-0.004517	-0.001629	-0.651367	0.541504	-0.517578	0.524442	-0.221249	-0.221339	-0.791845
15498		5.649333	1.123595	7.850661	0.004587	-0.004668	0.000334	-0.658447	0.541748	-0.514893	0.524502	-0.221243	-0.221357	-0.791802
15499		5.663124	1.123570	7.845804	0.003171	-0.002439	-0.001644	-0.649170	0.551270	-0.517090	0.524471	-0.221278	-0.221373	-0.791808
15500		5.649508	1.115905	7.848394	0.004892	-0.003379	-0.002777	-0.651367	0.537109	-0.514893	0.524600	-0.221292	-0.221327	-0.791732
15501		5.644543	1.106943	7.855334	0.004261	-0.002946	-0.001847	-0.657715	0.545654	-0.512939	0.524588	-0.221274	-0.221358	-0.791736
15502		5.651576	1.127976	7.848417	0.004483	-0.002848	-0.002987	-0.652588	0.541748	-0.514893	0.524575	-0.221334	-0.221365	-0.791726
15503		5.642562	1.120906	7.842292	0.003944	-0.003964	-0.001745	-0.648682	0.547852	-0.511963	0.524590	-0.221354	-0.221376	-0.791708
15504		5.660390	1.119229	7.850474	0.004942	-0.002921	-0.002259	-0.643799	0.539795	-0.516113	0.524671	-0.221398	-0.221337	-0.791652
15505		5.652426	1.122022	7.845420	0.005256	-0.004373	-0.003088	-0.653076	0.533936	-0.513184	0.524733	-0.221355	-0.221348	-0.791620
15506		5.640936	1.133797	7.850178	0.004311	-0.002488	-0.001329	-0.649170	0.541016	-0.518066	0.524678	-0.221343	-0.221395	-0.791647
15507		5.653554	1.124280	7.844284	0.003077	-0.003360	-0.002683	-0.657227	0.536621	-0.522705	0.524718	-0.221312	-0.221394	-0.791629
15508		5.648642	1.115073	7.851237	0.003536	-0.003433	-0.001955	-0.651123	0.540771	-0.513184	0.524688	-0.221246	-0.221457	-0.791650
15509		5.652332	1.104737	7.862551	0.005576	-0.003357	-0.003192	-0.662842	0.542969	-0.511475	0.524688	-0.221255	-0.221481	-0.791641
15510		5.646586	1.129097	7.838220	0.002764	-0.001908	-0.001855	-0.650635	0.539795	-0.510254	0.524615	-0.221339	-0.221490	-0.791663
15511		5.636130	1.112210	7.831324	0.004490	-0.000380	-0.002264	-0.649658	0.542725	-0.511230	0.524614	-0.221348	-0.221478	-0.791665
15512		5.653260	1.108331	7.861378	0.005071	-0.003745	-0.004439	-0.664307	0.540527	-0.519775	0.524617	-0.221381	-0.221482	-0.791652
15513		5.647599	1.132925	7.836937	0.005452	-0.002536	-0.001015	-0.652832	0.544678	-0.512207	0.524570	-0.221367	-0.221553	-0.791668
15514		5.641656	1.114268	7.842777	0.005134	-0.003554	-0.000912	-0.653320	0.538330	-0.517334	0.524603	-0.221417	-0.221547	-0.791633
15515		5.651924	1.123470	7.847677	0.002858	-0.003460	-0.001544	-0.654541	0.543945	-0.514404	0.524598	-0.221404	-0.221567	-0.791634
15516		5.659024	1.103967	7.849308	0.005896	-0.002341	-0.003297	-0.645996	0.544189	-0.520020	0.524605	-0.221411	-0.221582	-0.791624
15517		5.644262	1.127433	7.842237	0.004267	-0.002949	-0.001850	-0.646729	0.541504	-0.517090	0.524711	-0.221359	-0.221560	-0.791574
15518		5.644788	1.128531	7.841700	0.004267	-0.002950	-0.001850	-0.652100	0.554932	-0.518066	0.524777	-0.221326	-0.221550	-0.791542
15519		5.651782	1.109164	7.843397	0.005487	-0.001809	-0.003507	-0.655762	0.532471	-0.513184	0.524893	-0.221337	-0.221500	-0.791477
15520		5.643445	1.111943	7.838615	0.004127	-0.001860	-0.002682	-0.656250	0.541016	-0.509521	0.524802	-0.221320	-0.221556	-0.791525
15521		5.641519	1.131662	7.848943	0.002543	-0.004479	-0.001441	-0.655273	0.544434	-0.518311	0.524756	-0.221415	-0.221561	-0.791529
15522		5.645268	1.120867	7.860309	0.003177	-0.002443	-0.001648	-0.648682	0.535156	-0.507812	0.524784	-0.221414	-0.221552	-0.791513
15523		5.646337	1.124305	7.837974	0.004773	-0.005034	-0.001329	-0.656494	0.542969	-0.513672	0.524750	-0.221463	-0.221583	-0.791513
15524		5.651783	1.130484	7.873185	0.002498	-0.002468	-0.001235	-0.656982	0.545166	-0.496826	0.524741	-0.221507	-0.221570	-0.791510
15525		5.660303	1.122700	7.854268	0.003541	-0.003437	-0.001958	-0.656250	0.537354	-0.514648	0.524661	-0.221712	-0.221535	-0.791516
15526		5.639166	1.125907	7.853599	0.003589	-0.002976	-0.001439	-0.648438	0.539551	-0.514648	0.524623	-0.221715	-0.221568	-0.791531
15527		5.646572	1.108602	7.833641	0.003448	-0.001886	-0.002271	-0.646484	0.546387	-0.518066	0.524648	-0.221691	-0.221556	-0.791524
15528		5.648579	1.126623	7.857107	0.004033	-0.002783	-0.003721	-0.656006	0.542480	-0.511963	0.524728	-0.221661	-0.221523	-0.791489
15529		5.651491	1.109121	7.845764	0.004540	-0.002394	-0.002475	-0.656006	0.538086	-0.511230	0.524705	-0.221694	-0.221531	-0.791492
15530		5.645175	1.131094	7.843181	0.004857	-0.001376	-0.002579	-0.649414	0.539551	-0.506104	0.524655	-0.221703	-0.221556	-0.791516
15531		5.643090	1.110414	7.862331	0.003227	-0.001984	-0.001130	-0.653076	0.536377	-0.516113	0.524645	-0.221761	-0.221527	-0.791515
15532		5.649047	1.121431	7.854315	0.004050	-0.003049	-0.000712	-0.650146	0.534180	-0.500977	0.524639	-0.221737	-0.221558	-0.791517
15533		5.662755	1.121911	7.849413	0.006218	-0.003800	-0.004130	-0.655518	0.543213	-0.515625	0.524541	-0.221809	-0.221597	-0.791551
15534		5.641762	1.125703	7.848562	0.005047	-0.004479	-0.001954	-0.646240	0.540527	-0.516602	0.524542	-0.221829	-0.221620	-0.791538
15535		5.637070	1.119181	7.833940	0.004954	-0.000456	-0.001544	-0.645752	0.544922	-0.511719	0.524614	-0.221763	-0.221603	-0.791513
15536		5.641343	1.118570	7.846694	0.004352	-0.001767	-0.003827	-0.661133	0.542725	-0.515381	0.524662	-0.221766	-0.221561	-0.791492
15537		5.632454	1.118945	7.863751	0.004258	-0.000217	-0.004141	-0.653076	0.540283	-0.520264	0.524608	-0.221761	-0.221574	-0.791526
15538		5.648082	1.140936	7.839662	0.003182	-0.002446	-0.001650	-0.650146	0.541748	-0.520020	0.524633	-0.221716	-0.221581	-0.791520
15539		5.646635	1.122537	7.836961	0.004005	-0.003511	-0.001231	-0.648682	0.540527	-0.510742	0.524688	-0.221678	-0.221585	-0.791493
15540		5.648282	1.133149	7.837441	0.004005	-0.003511	-0.001232	-0.646729	0.537354	-0.517090	0.524705	-0.221709	-0.221573	-0.791477
15541		5.647932	1.124364	7.835764	0.002866	-0.003464	-0.001546	-0.653076	0.545898	-0.511475	0.524739	-0.221674	-0.221574	-0.791464
15542		5.660282	1.112281	7.851552	0.003594	-0.002979	-0.001441	-0.654785	0.542725	-0.513428	0.524756	-0.221729	-0.221544	-0.791445
15543		5.647671	1.114032	7.855356	0.003183	-0.002446	-0.001651	-0.649902	0.538086	-0.519287	0.524751	-0.221756	-0.221530	-0.791445
15544		5.643803	1.117075	7.841958	0.005589	-0.000894	-0.002478	-0.652100	0.540283	-0.510742	0.524781	-0.221670	-0.221554	-0.791443
15545		5.644048	1.118328	7.841603	0.003405	-0.002351	-0.002792	-0.652832	0.539795	-0.514648	0.524757	-0.221697	-0.221544	-0.791454
15546		5.648450	1.115209	7.875745	0.005053	-0.004481	-0.001956	-0.656006	0.533203	-0.520264	0.524749	-0.221705	-0.221574	-0.791448
15547		5.645310	1.120867	7.840332	0.005638	-0.002907	-0.002684	-0.646484	0.555176	-0.515137	0.524709	-0.221630	-0.221652	-0.791474
15548		5.636163	1.113942	7.834347	0.005005	-0.002470	-0.001752	-0.652588	0.539307	-0.516357	0.524837	-0.221658	-0.221577	-0.791402
15549		5.651343	1.131226	7.853432	0.005005	-0.002470	-0.001752	-0.658447	0.542725	-0.507812	0.524843	-0.221632	-0.221597	-0.791400
15550		5.636808	1.113877	7.855016	0.004009	-0.003513	-0.001233	-0.651611	0.537354	-0.521973	0.524791	-0.221721	-0.221595	-0.791410
15551		5.643913	1.134751	7.847888	0.004690	-0.003489	-0.001648	-0.651855	0.538086	-0.516357	0.524815	-0.221652	-0.221636	-0.791402
15552		5.657586	1.135108	7.843009	0.004959	-0.002932	-0.002271	-0.652832	0.543213	-0.510986	0.524812	-0.221623	-0.221662	-0.791404
15553		5.643910	1.127138	7.845809	0.001918	-0.001573	0.000213	-0.652832	0.542480	-0.511475	0.524828	-0.221672	-0.221611	-0.791395
15554		5.643303	1.118174	7.844362	0.004326	-0.002495	-0.001339	-0.646484	0.546631	-0.510010	0.524829	-0.221702	-0.221598	-0.791389
15555		5.652532	1.118156	7.848107	0.005959	-0.004365	-0.003514	-0.654297	0.543945	-0.508545	0.524864	-0.221743	-0.221583	-0.791359
15556		5.654063	1.129420	7.848557	0.006417	-0.001962	-0.002065	-0.648926	0.541748	-0.517822	0.524851	-0.221782	-0.221581	-0.791357
15557		5.635694	1.121730	7.860080	0.005814	-0.000803	-0.003625	-0.653809	0.540771	-0.517578	0.524886	-0.221716	-0.221585	-0.791351
15558		5.647941	1.112599	7.854424	0.004184	-0.001407	-0.002173	-0.656494	0.541504	-0.512451	0.524892	-0.221684	-0.221589	-0.791355
15559		5.640634	1.125216	7.850651	0.007687	-0.002839	-0.003931	-0.658447	0.539307	-0.509521	0.524851	-0.221686	-0.221634	-0.791369
15560		5.653115	1.116322	7.844794	0.004137	-0.001870	-0.002691	-0.650146	0.539307	-0.519287	0.524781	-0.221723	-0.221642	-0.791403
15561		5.642042	1.135259	7.872495	0.004329	-0.002496	-0.001340	-0.654053	0.540527	-0.519531	0.524816	-0.221675	-0.221651	-0.791390
15562		5.657067	1.107255	7.855859	0.005913	-0.002355	-0.003312	-0.652100	0.535156	-0.509277	0.524818	-0.221624	-0.221685	-0.791394
15563		5.638035	1.132620	7.835696	0.004044	-0.002795	-0.003728	-0.657227	0.540527	-0.508301	0.524754	-0.221639	-0.221702	-0.791428
15564		5.650171	1.120876	7.851642	0.003504	-0.001432	-0.001759	-0.649902	0.542969	-0.508789	0.524700	-0.221689	-0.221684	-0.791454
15565		5.633968	1.131921	7.865248	0.004283	-0.002959	-0.001859	-0.653564	0.546631	-0.517334	0.524703	-0.221735	-0.221656	-0.791447
15566		5.659800	1.121515	7.855006	0.002826	-0.003932	-0.002066	-0.659912	0.534424	-0.509521	0.524726	-0.221760	-0.221632	-0.791432
15567		5.647364	1.123384	7.858687	0.004237	-0.003422	-0.002378	-0.658447	0.544922	-0.513428	0.524626	-0.221796	-0.221672	-0.791477
15568		5.649117	1.136372	7.837559	0.002776	-0.001919	-0.001863	-0.650879	0.542236	-0.515381	0.524602	-0.221835	-0.221642	-0.791490
15569		5.638888	1.119433	7.830671	0.004553	-0.002404	-0.002484	-0.649170	0.542236	-0.502686	0.524620	-0.221821	-0.221635	-0.791484
15570		5.644644	1.128502	7.844143	0.005064	-0.004488	-0.001960	-0.657471	0.542236	-0.517578	0.524594	-0.221913	-0.221614	-0.791481
15571		5.662626	1.127107	7.852169	0.005380	-0.003469	-0.002067	-0.654785	0.545410	-0.516113	0.524585	-0.221906	-0.221640	-0.791482
15572		5.639437	1.111302	7.849460	0.004093	-0.002335	-0.003212	-0.655518	0.548340	-0.509766	0.524586	-0.221908	-0.221626	-0.791485
15573		5.644952	1.120379	7.863105	0.004094	-0.002335	-0.003212	-0.662354	0.542236	-0.513672	0.524567	-0.221967	-0.221586	-0.791492
15574		5.653370	1.112917	7.844200	0.003779	-0.003354	-0.003106	-0.650635	0.536133	-0.503906	0.524500	-0.222004	-0.221600	-0.791522
15575		5.638102	1.131488	7.880363	0.004193	-0.003887	-0.002897	-0.653809	0.541992	-0.511963	0.524439	-0.222060	-0.221603	-0.791546
15576		5.631883	1.107841	7.841884	0.003827	-0.002892	-0.002589	-0.650146	0.541016	-0.517822	0.524420	-0.222083	-0.221591	-0.791556
15577		5.634276	1.128251	7.843505	0.003413	-0.002360	-0.002798	-0.653809	0.534180	-0.512451	0.524441	-0.222050	-0.221581	-0.791553
15578		5.658733	1.106192	7.853954	0.006525	-0.003517	-0.001757	-0.651611	0.541748	-0.515137	0.524410	-0.222031	-0.221634	-0.791565
15579		5.651598	1.118398	7.850088	0.002732	-0.002384	-0.002383	-0.653076	0.542480	-0.514893	0.524417	-0.222029	-0.221610	-0.791568
15580		5.655657	1.110263	7.839809	0.005116	-0.004027	-0.001444	-0.653076	0.543945	-0.518799	0.524427	-0.222038	-0.221616	-0.791556
15581		5.629977	1.113369	7.847872	0.005506	-0.001828	-0.003528	-0.650146	0.539551	-0.513184	0.524445	-0.221996	-0.221621	-0.791555
15582		5.638763	1.111280	7.873414	0.006067	-0.003449	-0.002485	-0.655518	0.544922	-0.519775	0.524449	-0.221985	-0.221639	-0.791550
15583		5.649697	1.125743	7.834622	0.006166	-0.005000	-0.002170	-0.644531	0.536133	-0.507568	0.524466	-0.221977	-0.221668	-0.791533
15584		5.645008	1.116902	7.841541	0.004751	-0.003033	-0.001136	-0.653809	0.544434	-0.508301	0.524478	-0.221987	-0.221659	-0.791525
15585		5.649781	1.116304	7.853977	0.005386	-0.003473	-0.002071	-0.651611	0.542236	-0.514404	0.524459	-0.222040	-0.221644	-0.791527
15586		5.637467	1.118638	7.857526	0.005200	-0.005327	-0.004142	-0.654297	0.542725	-0.511719	0.524445	-0.222053	-0.221664	-0.791527
15587		5.642706	1.120499	7.848088	0.004705	-0.003497	-0.001655	-0.659912	0.548340	-0.519775	0.524434	-0.222083	-0.221657	-0.791528
15588		5.651049	1.110691	7.850757	0.004659	-0.003960	-0.002173	-0.649414	0.541016	-0.511230	0.524437	-0.222096	-0.221658	-0.791522
15589		5.634453	1.114546	7.841386	0.004706	-0.003497	-0.001656	-0.649658	0.537598	-0.519043	0.524446	-0.222111	-0.221648	-0.791514
15590		5.653237	1.122553	7.850599	0.003196	-0.002455	-0.001658	-0.656738	0.545410	-0.509521	0.524472	-0.222064	-0.221649	-0.791510
15591		5.656610	1.111957	7.862369	0.003918	0.000509	-0.000837	-0.658447	0.541748	-0.521240	0.524465	-0.222090	-0.221594	-0.791523
15592		5.653461	1.124661	7.850135	0.005510	-0.001832	-0.003532	-0.654785	0.543701	-0.519775	0.524453	-0.222036	-0.221621	-0.791538
15593		5.644278	1.117613	7.844263	0.003104	-0.003383	-0.002693	-0.642578	0.545166	-0.517822	0.524459	-0.222026	-0.221614	-0.791539
15594		5.649082	1.117070	7.856677	0.006533	-0.003521	-0.001763	-0.656738	0.539795	-0.514893	0.524548	-0.221989	-0.221607	-0.791493
15595		5.653209	1.109456	7.846284	0.005565	-0.003848	-0.003735	-0.660156	0.542969	-0.511719	0.524506	-0.221985	-0.221640	-0.791512
15596		5.646001	1.121949	7.842404	0.004829	-0.001856	-0.003117	-0.648926	0.536865	-0.510254	0.524454	-0.222007	-0.221636	-0.791542
15597		5.637438	1.122418	7.859326	0.005245	-0.002389	-0.002909	-0.651611	0.550049	-0.516357	0.524439	-0.221996	-0.221641	-0.791553
15598		5.641462	1.114466	7.849057	0.003520	-0.003917	-0.002485	-0.663574	0.541992	-0.519531	0.524472	-0.222026	-0.221601	-0.791534
15599		5.660270	1.122533	7.858231	0.003881	-0.002434	-0.002076	-0.653076	0.543701	-0.508057	0.524435	-0.222016	-0.221615	-0.791558
15600		5.646480	1.114602	7.861228	0.001954	-0.000860	-0.002286	-0.660889	0.539062	-0.514893	0.524414	-0.222058	-0.221550	-0.791578
15601		5.621682	1.129336	7.848913	0.006021	-0.001439	-0.002291	-0.656250	0.537109	-0.516113	0.524372	-0.222036	-0.221575	-0.791605
15602		5.642849	1.118746	7.847451	0.003107	-0.003386	-0.002694	-0.652588	0.542480	-0.517822	0.524335	-0.222028	-0.221588	-0.791628
15603		5.643438	1.117482	7.868428	0.004546	-0.005606	-0.000715	-0.652588	0.546143	-0.515381	0.524357	-0.222040	-0.221599	-0.791607
15604		5.657565	1.119846	7.841667	0.003153	-0.002922	-0.002177	-0.648193	0.540283	-0.513428	0.524371	-0.222057	-0.221563	-0.791603
15605		5.648276	1.110295	7.857470	0.004251	-0.003432	-0.002386	-0.650879	0.542725	-0.514404	0.524382	-0.222054	-0.221555	-0.791599
15606		5.657681	1.112245	7.839582	0.003200	-0.002458	-0.001660	-0.660645	0.541748	-0.515381	0.524397	-0.222059	-0.221524	-0.791596
15607		5.652681	1.103175	7.846815	0.004104	-0.002346	-0.003221	-0.651123	0.546631	-0.519287	0.524349	-0.222061	-0.221528	-0.791626
15608		5.639971	1.105331	7.850697	0.006217	-0.002063	-0.000941	-0.650879	0.539307	-0.518311	0.524409	-0.222028	-0.221518	-0.791599
15609		5.632452	1.117790	7.847030	0.005414	-0.000286	-0.003856	-0.642578	0.536377	-0.513916	0.524416	-0.221956	-0.221523	-0.791613
15610		5.659329	1.125113	7.860869	0.006337	-0.000422	-0.002403	-0.656982	0.535400	-0.511719	0.524458	-0.221885	-0.221522	-0.791605
15611		5.659630	1.128913	7.838876	0.004640	-0.001238	-0.004474	-0.651123	0.545898	-0.508545	0.524386	-0.221865	-0.221536	-0.791655
15612		5.645400	1.119244	7.863697	0.004050	-0.000331	-0.003022	-0.644775	0.541504	-0.518555	0.524382	-0.221886	-0.221478	-0.791668
15613		5.636922	1.121704	7.859064	0.002962	-0.002302	-0.003531	-0.653076	0.536133	-0.517090	0.524419	-0.221848	-0.221454	-0.791660
15614		5.653765	1.112854	7.844667	0.004881	-0.001396	-0.002604	-0.659912	0.536621	-0.518555	0.524408	-0.221797	-0.221468	-0.791678
15615		5.640750	1.114935	7.848779	0.004558	0.000065	-0.001779	-0.652832	0.538086	-0.513916	0.524379	-0.221742	-0.221477	-0.791710
15616		5.640816	1.117970	7.827061	0.001217	0.001131	-0.001671	-0.649902	0.547852	-0.521729	0.524369	-0.221719	-0.221421	-0.791739
15617		5.650153	1.125008	7.854028	0.004882	-0.001397	-0.002605	-0.653320	0.549561	-0.520508	0.524427	-0.221676	-0.221397	-0.791719
15618		5.637066	1.127256	7.858166	0.005509	0.000641	-0.002823	-0.646973	0.539551	-0.514893	0.524473	-0.221627	-0.221364	-0.791712
15619		5.623016	1.119746	7.861326	0.003738	-0.001352	-0.002914	-0.649658	0.545898	-0.510742	0.524487	-0.221599	-0.221341	-0.791717
15620		5.640722	1.120503	7.848006	0.003739	-0.001352	-0.002914	-0.641113	0.541992	-0.507324	0.524494	-0.221619	-0.221291	-0.791721
15621		5.645140	1.119788	7.860743	0.003517	-0.001441	-0.001770	-0.648682	0.548340	-0.517822	0.524530	-0.221635	-0.221232	-0.791709
15622		5.644657	1.113364	7.837705	0.004662	-0.001487	-0.001461	-0.652588	0.539307	-0.510254	0.524590	-0.221620	-0.221194	-0.791684
15623		5.624953	1.133855	7.860981	0.004063	-0.002815	-0.003740	-0.654297	0.537354	-0.506592	0.524546	-0.221636	-0.221186	-0.791711
15624		5.636553	1.114731	7.854203	0.003713	-0.002063	-0.000417	-0.645996	0.534668	-0.513184	0.524508	-0.221673	-0.221161	-0.791732
15625		5.636025	1.105979	7.852778	0.004350	-0.002506	-0.001353	-0.655762	0.541504	-0.510010	0.524518	-0.221647	-0.221160	-0.791733
15626		5.638452	1.126709	7.854184	0.006770	-0.003438	-0.002915	-0.658447	0.536377	-0.514648	0.524478	-0.221667	-0.221175	-0.791750
15627		5.636867	1.108794	7.851776	0.002862	-0.000755	-0.003851	-0.657959	0.539795	-0.516357	0.524412	-0.221646	-0.221167	-0.791802
15628		5.641996	1.117758	7.865678	0.002954	0.000176	-0.002817	-0.652100	0.548096	-0.515869	0.524378	-0.221619	-0.221142	-0.791839
15629		5.638775	1.130324	7.853433	0.004886	-0.001399	-0.002607	-0.653564	0.537109	-0.506592	0.524400	-0.221614	-0.221108	-0.791835
15630		5.640468	1.103363	7.841483	0.006058	-0.000735	-0.004797	-0.649658	0.552246	-0.514160	0.524332	-0.221608	-0.221107	-0.791882
15631		5.632867	1.113742	7.859390	0.005406	-0.003483	-0.002080	-0.650391	0.542725	-0.511230	0.524373	-0.221640	-0.221070	-0.791856
15632		5.641242	1.104073	7.862088	0.004678	-0.003970	-0.002179	-0.647217	0.549316	-0.510742	0.524368	-0.221669	-0.221057	-0.791856
15633		5.638384	1.116962	7.849529	0.005330	-0.001224	-0.004898	-0.653076	0.538086	-0.507812	0.524378	-0.221676	-0.221012	-0.791859
15634		5.639473	1.128073	7.850201	0.003742	-0.001355	-0.002917	-0.649658	0.547119	-0.519043	0.524332	-0.221690	-0.220987	-0.791893
15635		5.622331	1.129914	7.862763	0.006313	-0.003374	-0.003644	-0.646729	0.539307	-0.519531	0.524360	-0.221668	-0.220990	-0.791879
15636		5.650700	1.101361	7.841768	0.005585	-0.003861	-0.003743	-0.655762	0.544678	-0.513184	0.524378	-0.221624	-0.221015	-0.791873
15637		5.631088	1.122447	7.864879	0.006894	-0.001802	-0.004383	-0.651123	0.535889	-0.512207	0.524349	-0.221615	-0.221019	-0.791894
15638		5.640156	1.125082	7.847096	0.005573	-0.001380	-0.003029	-0.650391	0.543701	-0.510010	0.524325	-0.221584	-0.221026	-0.791916
15639		5.644823	1.124829	7.859602	0.005365	-0.003950	-0.002599	-0.650635	0.547607	-0.513672	0.524316	-0.221616	-0.221014	-0.791917
15640		5.640327	1.118498	7.844882	0.006271	-0.003842	-0.004163	-0.653320	0.537354	-0.508301	0.524317	-0.221630	-0.221010	-0.791913
15641		5.632134	1.121052	7.840027	0.003302	-0.001532	-0.000629	-0.650391	0.537109	-0.512695	0.524291	-0.221650	-0.220978	-0.791934
15642		5.632160	1.120118	7.861418	0.006258	-0.001360	-0.003449	-0.638184	0.552979	-0.515869	0.524274	-0.221614	-0.220989	-0.791952
15643		5.636819	1.122016	7.852349	0.004162	-0.001890	-0.002710	-0.658936	0.537109	-0.512451	0.524371	-0.221611	-0.220920	-0.791908
15644		5.637935	1.132931	7.853011	0.004012	-0.000805	-0.003547	-0.643066	0.545410	-0.513184	0.524305	-0.221598	-0.220914	-0.791956
15645		5.646655	1.133037	7.857106	0.005159	-0.000850	-0.003240	-0.652832	0.531250	-0.510254	0.524348	-0.221576	-0.220876	-0.791945
15646		5.632184	1.117970	7.837407	0.003851	-0.002909	-0.002599	-0.654053	0.549316	-0.504639	0.524291	-0.221572	-0.220887	-0.791981
15647		5.642087	1.125438	7.863905	0.004998	-0.002954	-0.002292	-0.655029	0.541260	-0.512451	0.524267	-0.221647	-0.220839	-0.791989
15648		5.633104	1.118211	7.857997	0.003540	-0.003929	-0.002489	-0.649658	0.543457	-0.509277	0.524233	-0.221677	-0.220827	-0.792007
15649		5.637155	1.110214	7.847761	0.005727	-0.002468	-0.002195	-0.657471	0.546143	-0.515381	0.524233	-0.221693	-0.220807	-0.792008
15650		5.635001	1.130662	7.857872	0.005950	-0.002381	-0.003341	-0.651855	0.542480	-0.516602	0.524213	-0.221693	-0.220805	-0.792022
15651		5.651932	1.122139	7.843376	0.004804	-0.002337	-0.003648	-0.648926	0.540283	-0.518066	0.524207	-0.221673	-0.220800	-0.792032
15652		5.644254	1.132216	7.861377	0.003793	-0.000894	-0.002404	-0.638428	0.541260	-0.508789	0.524228	-0.221631	-0.220779	-0.792037
15653		5.625914	1.123890	7.873270	0.003616	-0.000514	-0.000742	-0.645508	0.542480	-0.511230	0.524287	-0.221624	-0.220717	-0.792016
15654		5.629965	1.117574	7.841502	0.003366	-0.003550	-0.000827	-0.642822	0.545410	-0.513184	0.524314	-0.221651	-0.220681	-0.792001
15655		5.623013	1.127711	7.858976	0.008145	-0.006593	-0.001976	-0.652344	0.544922	-0.506836	0.524360	-0.221668	-0.220708	-0.791958
15656		5.645094	1.117666	7.856837	0.006270	-0.007037	-0.002380	-0.650391	0.546387	-0.510742	0.524331	-0.221745	-0.220719	-0.791953
15657		5.628980	1.119754	7.868669	0.007836	-0.007614	-0.001866	-0.655029	0.551514	-0.517334	0.524335	-0.221800	-0.220750	-0.791926
15658		5.638897	1.121986	7.850297	0.004977	-0.003661	0.000204	-0.654541	0.545654	-0.515381	0.524376	-0.221830	-0.220722	-0.791898
15659		5.627766	1.133331	7.854764	0.003581	-0.006654	-0.000186	-0.649414	0.545410	-0.515381	0.524381	-0.221888	-0.220715	-0.791881
15660		5.632548	1.124812	7.844079	0.003582	-0.006655	-0.000186	-0.658203	0.537354	-0.512695	0.524408	-0.221938	-0.220705	-0.791851
15661		5.641303	1.114664	7.846616	0.003323	-0.004019	-0.001346	-0.656006	0.543945	-0.512695	0.524362	-0.221962	-0.220707	-0.791875
15662		5.650544	1.114266	7.850408	0.002754	-0.002403	-0.002393	-0.648438	0.542480	-0.516602	0.524336	-0.221986	-0.220673	-0.791895
15663		5.635510	1.136905	7.843217	0.002533	-0.002489	-0.001247	-0.651855	0.544678	-0.516357	0.524362	-0.221981	-0.220639	-0.791888
15664		5.642859	1.116889	7.845180	0.003193	-0.003171	0.000834	-0.663330	0.542969	-0.515381	0.524398	-0.221997	-0.220606	-0.791869
15665		5.638397	1.107352	7.852229	0.003211	-0.005657	0.000121	-0.657471	0.544189	-0.517090	0.524362	-0.222051	-0.220607	-0.791877
15666		5.627483	1.120869	7.834912	0.004800	-0.005531	-0.001866	-0.650391	0.539062	-0.517578	0.524346	-0.222075	-0.220622	-0.791878
15667		5.641523	1.121309	7.829656	0.005067	-0.004979	-0.002495	-0.648682	0.536133	-0.514648	0.524344	-0.222062	-0.220648	-0.791875
15668		5.654031	1.108142	7.867114	0.005447	-0.002791	-0.004592	-0.655029	0.541504	-0.511963	0.524321	-0.222023	-0.220670	-0.791895
15669		5.659785	1.122152	7.837156	0.006488	-0.001284	-0.004608	-0.648682	0.541016	-0.517822	0.524283	-0.221999	-0.220677	-0.791925
15670		5.633593	1.125427	7.845721	0.004372	0.000674	-0.003152	-0.654541	0.546387	-0.503906	0.524303	-0.221937	-0.220653	-0.791936
15671		5.655267	1.124825	7.845500	0.006312	-0.000902	-0.002946	-0.656982	0.542480	-0.515625	0.524272	-0.221966	-0.220619	-0.791957
15672		5.637034	1.117092	7.857310	0.004391	-0.001813	-0.003864	-0.655518	0.541260	-0.518311	0.524239	-0.221953	-0.220612	-0.791985
15673		5.632855	1.118045	7.865659	0.004900	-0.001411	-0.002622	-0.648438	0.550537	-0.511963	0.524232	-0.221917	-0.220612	-0.792000
15674		5.641970	1.120171	7.847844	0.004589	-0.002430	-0.002510	-0.653076	0.541016	-0.520264	0.524257	-0.221940	-0.220568	-0.791990
15675		5.642172	1.121314	7.847535	0.003378	-0.000367	-0.002620	-0.652832	0.546143	-0.513428	0.524263	-0.221892	-0.220548	-0.792004
15676		5.624477	1.120952	7.882233	0.005014	0.000225	-0.004091	-0.645752	0.541748	-0.513916	0.524255	-0.221868	-0.220515	-0.792025
15677		5.633422	1.125213	7.842890	0.003289	-0.001303	-0.003654	-0.653076	0.546143	-0.512451	0.524263	-0.221849	-0.220483	-0.792035
15678		5.641297	1.115417	7.846033	0.003798	-0.000900	-0.002411	-0.637207	0.541748	-0.515137	0.524261	-0.221854	-0.220439	-0.792047
15679		5.628397	1.117585	7.850101	0.005078	-0.001795	-0.004286	-0.652344	0.540039	-0.510498	0.524305	-0.221809	-0.220425	-0.792034
15680		5.620913	1.127790	7.867961	0.004789	-0.003047	-0.001155	-0.635986	0.541016	-0.522217	0.524295	-0.221824	-0.220416	-0.792039
15681		5.642556	1.119213	7.844587	0.003971	-0.004471	-0.002284	-0.647949	0.545654	-0.511475	0.524372	-0.221783	-0.220419	-0.791999
15682		5.646505	1.108974	7.856108	0.003444	-0.002388	-0.002816	-0.659912	0.542969	-0.512695	0.524379	-0.221801	-0.220380	-0.792000
15683		5.647982	1.119993	7.856439	0.006535	-0.004008	-0.002306	-0.648926	0.544922	-0.520508	0.524340	-0.221818	-0.220399	-0.792015
15684		5.647721	1.111806	7.854833	0.004968	-0.003432	-0.002819	-0.653809	0.544189	-0.518066	0.524367	-0.221795	-0.220402	-0.792003
15685		5.631799	1.123403	7.868186	0.005609	-0.003881	-0.003758	-0.656738	0.538574	-0.514893	0.524355	-0.221785	-0.220418	-0.792009
15686		5.640405	1.116005	7.849118	0.004659	-0.004453	-0.002707	-0.647461	0.542480	-0.513916	0.524314	-0.221792	-0.220436	-0.792030
15687		5.646246	1.125257	7.862425	0.003865	-0.002921	-0.002608	-0.655762	0.545654	-0.522705	0.524324	-0.221793	-0.220417	-0.792028
15688		5.634623	1.139060	7.845517	0.005324	-0.001946	-0.002418	-0.652100	0.552002	-0.511230	0.524338	-0.221755	-0.220420	-0.792028
15689		5.629756	1.130450	7.852782	0.005655	-0.003414	-0.003242	-0.658203	0.542969	-0.507568	0.524344	-0.221791	-0.220397	-0.792021
15690		5.638234	1.120775	7.855494	0.003755	-0.004557	-0.001139	-0.645752	0.542725	-0.510498	0.524303	-0.221854	-0.220377	-0.792036
15691		5.640063	1.133458	7.833951	0.004020	-0.004005	-0.001770	-0.655029	0.548584	-0.510010	0.524317	-0.221879	-0.220357	-0.792025
15692		5.631136	1.124040	7.849755	0.003977	-0.004474	-0.002287	-0.655273	0.543457	-0.516113	0.524300	-0.221937	-0.220331	-0.792028
15693		5.639662	1.116280	7.830789	0.003867	-0.002923	-0.002610	-0.651855	0.536621	-0.517334	0.524285	-0.221939	-0.220320	-0.792040
15694		5.632167	1.126421	7.848674	0.004398	-0.001820	-0.003871	-0.650635	0.553711	-0.514404	0.524262	-0.221895	-0.220328	-0.792065
15695		5.620349	1.138158	7.853561	0.003912	-0.002455	-0.002093	-0.654541	0.540527	-0.509766	0.524294	-0.221923	-0.220280	-0.792050
15696		5.636674	1.117321	7.859666	0.003868	-0.006109	-0.000817	-0.649902	0.544434	-0.520996	0.524268	-0.221979	-0.220280	-0.792051
15697		5.659504	1.118200	7.836999	0.002829	-0.004432	-0.002591	-0.647461	0.542480	-0.520508	0.524283	-0.221978	-0.220272	-0.792044
15698		5.630748	1.128155	7.876332	0.005748	-0.005666	-0.000420	-0.648682	0.542236	-0.516846	0.524327	-0.221971	-0.220297	-0.792010
15699		5.640458	1.129687	7.858126	0.000819	-0.004022	-0.000809	-0.647705	0.545166	-0.512939	0.524344	-0.221994	-0.220259	-0.792003
15700		5.644661	1.121024	7.847895	0.004532	-0.003602	-0.000530	-0.650146	0.542969	-0.519043	0.524377	-0.222012	-0.220240	-0.791981
15701		5.635755	1.113434	7.842068	0.003383	-0.003558	-0.000834	-0.655518	0.545410	-0.511963	0.524403	-0.222008	-0.220228	-0.791969
15702		5.645917	1.123045	7.846703	0.005240	-0.002887	-0.003456	-0.650879	0.548828	-0.515137	0.524377	-0.222020	-0.220221	-0.791984
15703		5.642849	1.131734	7.877505	0.005019	-0.002969	-0.002309	-0.657715	0.547363	-0.513184	0.524398	-0.222027	-0.220205	-0.791973
15704		5.639269	1.136719	7.842087	0.005860	-0.004033	-0.001892	-0.655518	0.542725	-0.514160	0.524386	-0.222052	-0.220207	-0.791973
15705		5.634728	1.128005	7.849172	0.004203	-0.004396	-0.003437	-0.639648	0.541504	-0.515869	0.524353	-0.222069	-0.220211	-0.791989
15706		5.652564	1.126808	7.857267	0.003759	-0.001374	-0.002936	-0.653320	0.546143	-0.510498	0.524394	-0.222033	-0.220186	-0.791979
15707		5.626062	1.121915	7.842966	0.005685	-0.003647	-0.000229	-0.650635	0.535645	-0.508545	0.524408	-0.222062	-0.220175	-0.791965
15708		5.649200	1.130935	7.843205	0.005551	-0.001869	-0.003573	-0.653320	0.541748	-0.517090	0.524371	-0.222044	-0.220180	-0.791993
15709		5.644280	1.122416	7.850546	0.005243	-0.002889	-0.003458	-0.650391	0.546143	-0.507812	0.524357	-0.222023	-0.220191	-0.792005
15710		5.640619	1.125327	7.836871	0.003984	-0.004479	-0.002290	-0.651611	0.538818	-0.516113	0.524348	-0.222074	-0.220168	-0.792003
15711		5.650901	1.132793	7.863118	0.002878	-0.003967	-0.002076	-0.650391	0.545898	-0.514404	0.524335	-0.222076	-0.220163	-0.792012
15712		5.650637	1.126389	7.839887	0.005465	-0.002809	-0.004607	-0.652100	0.539551	-0.513916	0.524327	-0.222067	-0.220163	-0.792020
15713		5.646510	1.125258	7.869946	0.002390	-0.001414	-0.002092	-0.647461	0.538574	-0.511475	0.524315	-0.222059	-0.220131	-0.792039
15714		5.633896	1.129328	7.852166	0.005886	-0.003341	-0.004399	-0.648926	0.540771	-0.506836	0.524294	-0.222043	-0.220148	-0.792053
15715		5.651004	1.120928	7.837479	0.005158	-0.003830	-0.004493	-0.653564	0.541992	-0.507812	0.524258	-0.222062	-0.220148	-0.792071
15716		5.644719	1.141155	7.855982	0.006088	-0.003955	-0.003044	-0.659424	0.538574	-0.507080	0.524227	-0.222084	-0.220155	-0.792084
15717		5.634786	1.124334	7.849323	0.003919	-0.002460	-0.002099	-0.658203	0.527344	-0.512695	0.524169	-0.222108	-0.220138	-0.792120
15718		5.639530	1.123716	7.861899	0.003233	-0.002479	-0.001676	-0.657227	0.532715	-0.514160	0.524104	-0.222087	-0.220149	-0.792166
15719		5.648772	1.123485	7.865661	0.003102	-0.003888	-0.003225	-0.650146	0.543701	-0.511963	0.524041	-0.222083	-0.220162	-0.792205
15720		5.657882	1.123165	7.869531	0.002900	-0.001008	-0.000852	-0.658691	0.533447	-0.511230	0.524059	-0.222086	-0.220113	-0.792206
15721		5.645111	1.126662	7.851940	0.003321	-0.001539	-0.000644	-0.660400	0.541504	-0.518066	0.524017	-0.222079	-0.220098	-0.792240
15722		5.632353	1.128024	7.856071	0.001950	-0.001577	0.000202	-0.656982	0.538818	-0.513916	0.524009	-0.222079	-0.220062	-0.792255
15723		5.648467	1.108891	7.840722	0.004077	-0.003543	-0.001260	-0.645264	0.535889	-0.513184	0.523984	-0.222086	-0.220061	-0.792270
15724		5.658793	1.118280	7.845236	0.004278	-0.004156	0.000097	-0.656982	0.541992	-0.512451	0.524011	-0.222085	-0.220064	-0.792252
15725		5.637780	1.121289	7.844697	0.004763	-0.003525	-0.001683	-0.651855	0.545654	-0.510010	0.523987	-0.222099	-0.220060	-0.792264
15726		5.655792	1.119979	7.852679	0.003613	-0.003482	-0.001985	-0.646484	0.540283	-0.512939	0.523981	-0.222133	-0.220030	-0.792268
15727		5.630433	1.124804	7.839105	0.005363	-0.004447	-0.003140	-0.651123	0.543213	-0.513184	0.523982	-0.222131	-0.220045	-0.792263
15728		5.649164	1.133297	7.848069	0.003122	-0.000928	-0.002002	-0.649170	0.535400	-0.518066	0.523987	-0.222124	-0.220006	-0.792273
15729		5.625890	1.117009	7.846118	0.004607	-0.002444	-0.002525	-0.652588	0.545166	-0.520020	0.523989	-0.222080	-0.220021	-0.792279
15730		5.640389	1.125220	7.863699	0.004213	-0.004405	-0.003442	-0.650635	0.534668	-0.511719	0.523990	-0.222077	-0.220030	-0.792277
15731		5.644478	1.117188	7.853475	0.005539	-0.002568	-0.001076	-0.656006	0.533936	-0.508789	0.523983	-0.222057	-0.220040	-0.792285
15732		5.649385	1.118777	7.844183	0.004301	-0.003465	-0.002410	-0.647705	0.541260	-0.514160	0.523926	-0.222065	-0.220042	-0.792319
15733		5.646519	1.131086	7.831469	0.003193	-0.002952	-0.002195	-0.648438	0.541504	-0.521729	0.523936	-0.222065	-0.220024	-0.792318
15734		5.654694	1.119249	7.856208	0.003501	-0.001931	-0.002311	-0.654053	0.544434	-0.514648	0.523967	-0.222025	-0.220018	-0.792310
15735		5.636809	1.113202	7.846297	0.005252	-0.002897	-0.003467	-0.656738	0.541748	-0.519775	0.523952	-0.222020	-0.220018	-0.792321
15736		5.639086	1.133899	7.847483	0.003880	-0.002934	-0.002619	-0.651611	0.541260	-0.509277	0.523938	-0.222004	-0.220020	-0.792335
15737		5.637604	1.113646	7.867118	0.002614	-0.001339	-0.003244	-0.650146	0.539795	-0.517578	0.523911	-0.222012	-0.219978	-0.792362
15738		5.643330	1.124849	7.858748	0.004216	-0.004407	-0.003443	-0.646240	0.544678	-0.517822	0.523903	-0.222002	-0.219993	-0.792366
15739		5.639563	1.127654	7.845142	0.005120	-0.002037	-0.001287	-0.655762	0.546143	-0.509277	0.523954	-0.221977	-0.219986	-0.792341
15740		5.634862	1.118709	7.852459	0.004040	-0.004017	-0.001779	-0.648682	0.543701	-0.507568	0.523933	-0.222021	-0.219962	-0.792350
15741		5.644129	1.118493	7.856199	0.002773	-0.002421	-0.002404	-0.653564	0.538086	-0.514893	0.523925	-0.222050	-0.219917	-0.792359
15742		5.640405	1.121039	7.842597	0.003998	-0.004488	-0.002295	-0.653564	0.540039	-0.517578	0.523902	-0.222055	-0.219926	-0.792370
15743		5.646104	1.130179	7.855990	0.003124	-0.000931	-0.002005	-0.647949	0.542969	-0.512695	0.523901	-0.222026	-0.219904	-0.792385
15744		5.641180	1.121229	7.863477	0.005035	-0.002979	-0.002320	-0.654785	0.539795	-0.512695	0.523913	-0.222024	-0.219899	-0.792379
15745		5.641551	1.122271	7.863063	0.002395	-0.001420	-0.002097	-0.654785	0.545410	-0.513672	0.523889	-0.222023	-0.219863	-0.792405
15746		5.654144	1.114665	7.835573	0.004306	-0.003468	-0.002413	-0.652832	0.541992	-0.513428	0.523878	-0.222039	-0.219850	-0.792412
15747		5.646890	1.125056	7.853277	0.006875	-0.003005	-0.002446	-0.652344	0.548096	-0.509766	0.523873	-0.222024	-0.219867	-0.792414
15748		5.647512	1.126524	7.852619	0.004730	-0.004001	-0.002205	-0.651855	0.540039	-0.511719	0.523870	-0.222061	-0.219848	-0.792411
15749		5.630675	1.128027	7.865243	0.002775	-0.002423	-0.002405	-0.656982	0.538574	-0.516113	0.523852	-0.222068	-0.219821	-0.792429
15750		5.651951	1.119337	7.842030	0.004614	-0.002449	-0.002530	-0.652344	0.549561	-0.513672	0.523824	-0.222048	-0.219825	-0.792452
15751		5.636004	1.130717	7.855475	0.004731	-0.004001	-0.002205	-0.649658	0.540527	-0.515381	0.523835	-0.222074	-0.219812	-0.792441
15752		5.635762	1.122204	7.853998	0.004818	-0.003059	-0.001174	-0.650146	0.540039	-0.512695	0.523852	-0.222063	-0.219813	-0.792433
15753		5.640716	1.121626	7.866445	0.002936	-0.003505	-0.001564	-0.655029	0.542725	-0.511719	0.523849	-0.222076	-0.219794	-0.792436
15754		5.640477	1.115007	7.843216	0.006614	-0.003556	-0.001816	-0.652588	0.545410	-0.511719	0.523837	-0.222080	-0.219805	-0.792440
15755		5.641091	1.116382	7.842579	0.003843	-0.003410	-0.003139	-0.646973	0.538086	-0.508789	0.523822	-0.222100	-0.219786	-0.792450
15756		5.643517	1.135090	7.865372	0.004733	-0.004003	-0.002207	-0.649170	0.535400	-0.508301	0.523814	-0.222111	-0.219787	-0.792451
15757		5.642409	1.116835	7.863057	0.003157	-0.003428	-0.002714	-0.658447	0.540039	-0.514893	0.523783	-0.222123	-0.219773	-0.792473
15758		5.643923	1.129633	7.841508	0.004954	-0.003925	-0.003357	-0.654297	0.534424	-0.522217	0.523739	-0.222122	-0.219787	-0.792498
15759		5.639283	1.121062	7.848772	0.005727	-0.002965	-0.002750	-0.649170	0.540771	-0.509033	0.523729	-0.222065	-0.219828	-0.792509
15760		5.639826	1.122087	7.848236	0.002295	-0.003053	-0.000624	-0.656006	0.537109	-0.511230	0.523731	-0.222095	-0.219788	-0.792510
15761		5.644612	1.123178	7.839075	0.004484	-0.001586	-0.000352	-0.656250	0.539551	-0.522461	0.523716	-0.222086	-0.219771	-0.792528
15762		5.644320	1.114496	7.837671	0.004939	-0.004614	-0.000850	-0.649902	0.545898	-0.514160	0.523723	-0.222070	-0.219799	-0.792520
15763		5.644437	1.104315	7.857692	0.006184	-0.005995	-0.003249	-0.651611	0.541992	-0.510498	0.523725	-0.222090	-0.219826	-0.792506
15764		5.647123	1.124958	7.858514	0.003363	-0.004040	-0.001358	-0.653320	0.541260	-0.509277	0.523717	-0.222120	-0.219805	-0.792508
15765		5.652133	1.126198	7.849165	0.004136	-0.003079	-0.000752	-0.646484	0.537109	-0.510254	0.523709	-0.222140	-0.219784	-0.792514
15766		5.638846	1.118396	7.852188	0.004271	-0.003946	-0.002933	-0.653564	0.543701	-0.512939	0.523698	-0.222144	-0.219787	-0.792519
15767		5.643900	1.119898	7.842768	0.004051	-0.004023	-0.001784	-0.645264	0.544189	-0.516357	0.523690	-0.222164	-0.219776	-0.792521
15768		5.665311	1.109274	7.841208	0.003976	-0.001999	-0.001594	-0.651123	0.535400	-0.521240	0.523735	-0.222147	-0.219760	-0.792501
15769		5.661447	1.110306	7.849412	0.006842	-0.003483	-0.002972	-0.652832	0.539307	-0.513672	0.523737	-0.222092	-0.219812	-0.792501
15770		5.648879	1.112635	7.853325	0.003687	-0.002335	-0.003984	-0.643066	0.541016	-0.520508	0.523706	-0.222079	-0.219803	-0.792527
15771		5.653446	1.114364	7.844220	0.005657	-0.000944	-0.002565	-0.647217	0.538818	-0.517090	0.523761	-0.222016	-0.219814	-0.792505
15772		5.632791	1.127252	7.844910	0.003511	-0.001940	-0.002319	-0.653809	0.543945	-0.522461	0.523778	-0.221988	-0.219806	-0.792505
15773		5.636599	1.117078	7.856732	0.003511	-0.001940	-0.002319	-0.644287	0.543457	-0.511719	0.523793	-0.221960	-0.219798	-0.792505
15774		5.650874	1.127206	7.852647	0.005309	-0.002438	-0.002963	-0.651367	0.543457	-0.512939	0.523817	-0.221950	-0.219793	-0.792493
15775		5.651145	1.130352	7.830479	0.004241	-0.001451	-0.002230	-0.655762	0.538574	-0.517822	0.523821	-0.221941	-0.219770	-0.792499
15776		5.642728	1.130745	7.847629	0.003045	-0.001881	-0.003044	-0.654785	0.543945	-0.510742	0.523794	-0.221919	-0.219758	-0.792527
15777		5.637961	1.122102	7.855039	0.006846	-0.003486	-0.002974	-0.655029	0.537842	-0.512939	0.523773	-0.221923	-0.219770	-0.792536
15778		5.638422	1.121627	7.876303	0.003555	-0.001469	-0.001804	-0.653564	0.537354	-0.509033	0.523750	-0.221912	-0.219748	-0.792560
15779		5.646570	1.113863	7.857566	0.005269	-0.002912	-0.003480	-0.662354	0.537109	-0.513184	0.523706	-0.221909	-0.219750	-0.792590
15780		5.634941	1.125811	7.862263	0.005007	-0.003461	-0.002846	-0.650146	0.540283	-0.516602	0.523640	-0.221909	-0.219758	-0.792631
15781		5.643299	1.118058	7.843372	0.004362	-0.003005	-0.001905	-0.650146	0.542725	-0.516357	0.523651	-0.221896	-0.219759	-0.792628
15782		5.640345	1.128734	7.852376	0.005270	-0.002913	-0.003481	-0.647217	0.537842	-0.520020	0.523654	-0.221878	-0.219768	-0.792628
15783		5.640764	1.130232	7.851860	0.004846	-0.002382	-0.003690	-0.648193	0.541504	-0.515869	0.523664	-0.221832	-0.219787	-0.792629
15784		5.646449	1.139751	7.865183	0.003896	-0.002947	-0.002629	-0.653320	0.549561	-0.509277	0.523676	-0.221823	-0.219782	-0.792625
15785		5.645027	1.123226	7.841390	0.003557	-0.001470	-0.001806	-0.656982	0.538086	-0.514404	0.523681	-0.221848	-0.219732	-0.792628
15786		5.641156	1.122247	7.871441	0.004542	-0.003404	-0.003572	-0.652100	0.538086	-0.521729	0.523634	-0.221842	-0.219738	-0.792659
15787		5.645973	1.123728	7.862179	0.002785	-0.002432	-0.002411	-0.655762	0.537109	-0.513916	0.523636	-0.221813	-0.219735	-0.792667
15788		5.658610	1.114344	7.856399	0.005052	-0.002990	-0.002333	-0.651367	0.546875	-0.511719	0.523606	-0.221802	-0.219742	-0.792688
15789		5.655598	1.126835	7.843635	0.004586	-0.002932	-0.003057	-0.642822	0.544189	-0.510010	0.523605	-0.221815	-0.219725	-0.792690
15790		5.643056	1.127320	7.869354	0.006003	-0.002426	-0.003395	-0.651367	0.542236	-0.506836	0.523630	-0.221806	-0.219724	-0.792676
15791		5.643335	1.130559	7.847141	0.004204	-0.001928	-0.002750	-0.648438	0.538330	-0.512451	0.523610	-0.221819	-0.219694	-0.792694
15792		5.635962	1.140850	7.864961	0.005054	-0.002991	-0.002334	-0.648926	0.543701	-0.514404	0.523610	-0.221808	-0.219698	-0.792696
15793		5.647592	1.123695	7.836659	0.004714	-0.001514	-0.001511	-0.644775	0.540527	-0.521973	0.523638	-0.221794	-0.219682	-0.792686
15794		5.635861	1.135439	7.841444	0.005480	-0.003523	-0.002126	-0.648682	0.548828	-0.522217	0.523683	-0.221758	-0.219710	-0.792658
15795		5.648677	1.124316	7.857343	0.003213	-0.002966	-0.002204	-0.654297	0.538574	-0.517578	0.523729	-0.221751	-0.219699	-0.792633
15796		5.643935	1.117308	7.842991	0.005744	-0.002976	-0.002762	-0.649414	0.537842	-0.513428	0.523714	-0.221724	-0.219719	-0.792645
15797		5.645328	1.128417	7.843201	0.005524	-0.003051	-0.001612	-0.647461	0.548584	-0.513428	0.523718	-0.221711	-0.219728	-0.792643
15798		5.649404	1.118487	7.854854	0.004369	-0.003009	-0.001908	-0.649170	0.536377	-0.514893	0.523752	-0.221725	-0.219710	-0.792621
15799		5.628363	1.121654	7.854398	0.004669	-0.004961	-0.003247	-0.652100	0.544678	-0.514160	0.523733	-0.221724	-0.219733	-0.792628
15800		5.642946	1.129876	7.871865	0.002831	-0.001962	-0.001897	-0.652588	0.542236	-0.518311	0.523739	-0.221731	-0.219699	-0.792632
15801		5.642480	1.121125	7.870657	0.004412	-0.002536	-0.001393	-0.649902	0.541016	-0.520264	0.523753	-0.221717	-0.219695	-0.792627
15802		5.638626	1.125632	7.835250	0.005400	-0.004473	-0.003160	-0.650879	0.532959	-0.512207	0.523760	-0.221700	-0.219726	-0.792619
15803		5.629643	1.116511	7.851426	0.003561	-0.001473	-0.001810	-0.654053	0.541016	-0.510254	0.523738	-0.221679	-0.219709	-0.792644
15804		5.648413	1.124979	7.860241	0.003599	-0.003974	-0.002513	-0.649658	0.539551	-0.515625	0.523707	-0.221706	-0.219694	-0.792662
15805		5.639428	1.117695	7.854590	0.005280	-0.002921	-0.003489	-0.658691	0.545898	-0.507324	0.523700	-0.221684	-0.219707	-0.792668
15806		5.643321	1.109820	7.844526	0.005322	-0.002447	-0.002973	-0.652344	0.542480	-0.514160	0.523661	-0.221706	-0.219685	-0.792694
15807		5.635693	1.122012	7.840689	0.004044	-0.000853	-0.003598	-0.648193	0.541260	-0.511719	0.523650	-0.221685	-0.219664	-0.792713
15808		5.644587	1.122063	7.844651	0.003053	-0.001890	-0.003050	-0.657227	0.543701	-0.512695	0.523647	-0.221684	-0.219637	-0.792723
15809		5.644079	1.113515	7.843457	0.004635	-0.002464	-0.002546	-0.649170	0.542969	-0.508057	0.523623	-0.221689	-0.219622	-0.792742
15810		5.645275	1.122503	7.865675	0.003647	-0.000526	-0.000780	-0.656738	0.540283	-0.516113	0.523639	-0.221693	-0.219575	-0.792743
15811		5.650510	1.133685	7.857482	0.004734	-0.000838	-0.004026	-0.652832	0.538818	-0.511230	0.523606	-0.221659	-0.219567	-0.792776
15812		5.623672	1.128672	7.843620	0.004210	-0.001933	-0.002755	-0.654541	0.533936	-0.523926	0.523582	-0.221652	-0.219552	-0.792798
15813		5.636365	1.117609	7.859640	0.004375	-0.003012	-0.001911	-0.654541	0.544678	-0.513184	0.523574	-0.221610	-0.219575	-0.792809
15814		5.650821	1.127777	7.855323	0.005022	-0.003471	-0.002855	-0.648926	0.542480	-0.510498	0.523560	-0.221620	-0.219572	-0.792816
15815		5.638359	1.130155	7.859189	0.005931	-0.003382	-0.004435	-0.656738	0.542480	-0.521729	0.523543	-0.221619	-0.219582	-0.792825
15816		5.638785	1.129667	7.880542	0.001982	-0.000902	-0.002315	-0.657959	0.541748	-0.522461	0.523539	-0.221596	-0.219551	-0.792843
15817		5.641617	1.113582	7.848063	0.005932	-0.003383	-0.004435	-0.652588	0.544189	-0.509521	0.523512	-0.221564	-0.219583	-0.792861
15818		5.638627	1.124400	7.857049	0.003482	-0.002424	-0.002843	-0.656494	0.549072	-0.518555	0.523496	-0.221582	-0.219551	-0.792875
15819		5.643422	1.124264	7.869601	0.004859	-0.002393	-0.003700	-0.654541	0.538818	-0.513428	0.523492	-0.221575	-0.219546	-0.792881
15820		5.630682	1.128056	7.851873	0.003951	-0.002482	-0.002120	-0.650391	0.537598	-0.508545	0.523471	-0.221572	-0.219533	-0.792899
15821		5.635433	1.129770	7.842595	0.005975	-0.002910	-0.003921	-0.655273	0.537354	-0.520752	0.523439	-0.221564	-0.219541	-0.792920
15822		5.622830	1.130368	7.868421	0.004475	-0.001388	-0.003394	-0.652588	0.544922	-0.506348	0.523420	-0.221519	-0.219547	-0.792944
15823		5.639655	1.121406	7.853977	0.004889	-0.002596	-0.000675	-0.646973	0.536865	-0.512451	0.523423	-0.221547	-0.219517	-0.792942
15824		5.639213	1.112936	7.852749	0.005371	-0.001977	-0.002463	-0.653076	0.544678	-0.517090	0.523428	-0.221523	-0.219519	-0.792945
15825		5.649045	1.124687	7.835518	0.005798	-0.002509	-0.002256	-0.658447	0.543213	-0.510254	0.523440	-0.221507	-0.219525	-0.792940
15826		5.638217	1.144618	7.862820	0.004862	-0.002396	-0.003702	-0.656982	0.542969	-0.516113	0.523394	-0.221515	-0.219509	-0.792972
15827		5.624700	1.136946	7.866137	0.003995	-0.002009	-0.001607	-0.654785	0.540039	-0.512207	0.523387	-0.221511	-0.219490	-0.792983
15828		5.629447	1.138135	7.856932	0.002535	-0.002989	-0.001779	-0.656982	0.550049	-0.513916	0.523365	-0.221530	-0.219461	-0.793001
15829		5.646472	1.128902	7.842380	0.004381	-0.003015	-0.001914	-0.652344	0.536133	-0.507080	0.523365	-0.221553	-0.219438	-0.793001
15830		5.646805	1.129917	7.841995	0.003141	-0.000946	-0.002023	-0.652832	0.540527	-0.504639	0.523336	-0.221552	-0.219399	-0.793031
15831		5.646911	1.131112	7.841746	0.005208	-0.000901	-0.003310	-0.652344	0.536377	-0.516846	0.523303	-0.221550	-0.219372	-0.793061
15832		5.642809	1.132250	7.850155	0.005374	-0.001979	-0.002465	-0.648926	0.538818	-0.516602	0.523295	-0.221515	-0.219383	-0.793073
15833		5.642863	1.135166	7.828082	0.003872	-0.000457	-0.001937	-0.654541	0.543213	-0.513916	0.523312	-0.221480	-0.219365	-0.793077
15834		5.637100	1.115056	7.856854	0.005168	-0.001377	-0.003826	-0.655762	0.550537	-0.514404	0.523293	-0.221461	-0.219356	-0.793097
15835		5.634022	1.125733	7.865910	0.003185	-0.003450	-0.002724	-0.646729	0.543213	-0.519531	0.523287	-0.221493	-0.219327	-0.793100
15836		5.644112	1.137177	7.848506	0.004302	-0.003967	-0.002945	-0.646729	0.550537	-0.514160	0.523310	-0.221485	-0.219339	-0.793083
15837		5.630006	1.119755	7.850923	0.003916	-0.002960	-0.002638	-0.651855	0.535889	-0.513428	0.523344	-0.221501	-0.219318	-0.793063
15838		5.638388	1.110308	7.853877	0.005294	-0.002931	-0.003497	-0.650391	0.540283	-0.521484	0.523316	-0.221483	-0.219331	-0.793083
15839		5.644667	1.131561	7.846165	0.004701	-0.001322	-0.004551	-0.652588	0.539795	-0.513672	0.523314	-0.221434	-0.219340	-0.793095
15840		5.619918	1.142673	7.877258	0.006233	-0.003044	-0.002052	-0.653809	0.548340	-0.515381	0.523310	-0.221422	-0.219354	-0.793097
15841		5.631536	1.125502	7.849003	0.004729	-0.001521	-0.001524	-0.652588	0.542725	-0.511963	0.523331	-0.221419	-0.219331	-0.793090
15842		5.631831	1.126626	7.848630	0.002552	-0.002319	-0.004293	-0.649902	0.537354	-0.515137	0.523300	-0.221429	-0.219301	-0.793116
15843		5.651184	1.144980	7.858279	0.003833	-0.000933	-0.002455	-0.653564	0.542969	-0.516846	0.523298	-0.221400	-0.219285	-0.793130
15844		5.627077	1.118857	7.856064	0.003793	-0.001409	-0.002970	-0.655029	0.539551	-0.509033	0.523294	-0.221384	-0.219268	-0.793142
15845		5.631433	1.120226	7.847104	0.003447	0.000073	-0.002148	-0.659668	0.546143	-0.511230	0.523270	-0.221374	-0.219223	-0.793173
15846		5.644386	1.120761	7.842447	0.005005	-0.000303	-0.004675	-0.656494	0.543213	-0.516602	0.523227	-0.221361	-0.219196	-0.793212
15847		5.636594	1.131542	7.860498	0.004965	-0.000779	-0.005191	-0.661865	0.540771	-0.512451	0.523194	-0.221328	-0.219190	-0.793245
15848		5.628645	1.143854	7.856804	0.004826	0.000102	-0.003008	-0.647461	0.546387	-0.515137	0.523151	-0.221304	-0.219164	-0.793288
15849		5.640187	1.124896	7.850508	0.004430	-0.002543	-0.001402	-0.647705	0.539307	-0.511230	0.523187	-0.221306	-0.219149	-0.793267
15850		5.633789	1.145132	7.868920	0.006887	-0.003507	-0.002999	-0.645752	0.539062	-0.515381	0.523186	-0.221296	-0.219172	-0.793264
15851		5.623845	1.128389	7.862663	0.004913	-0.001928	-0.003193	-0.654297	0.539551	-0.514893	0.523198	-0.221268	-0.219175	-0.793263
15852		5.636330	1.119138	7.857026	0.003065	-0.001902	-0.003056	-0.653809	0.536865	-0.520508	0.523174	-0.221261	-0.219153	-0.793287
15853		5.646304	1.128860	7.861546	0.004391	-0.003019	-0.001918	-0.650146	0.533691	-0.510010	0.523169	-0.221239	-0.219164	-0.793293
15854		5.629316	1.132190	7.852549	0.004653	-0.002474	-0.002556	-0.655029	0.545654	-0.514404	0.523144	-0.221229	-0.219162	-0.793313
15855		5.629619	1.133408	7.852156	0.003796	-0.001412	-0.002972	-0.653320	0.544189	-0.513672	0.523135	-0.221227	-0.219134	-0.793327
15856		5.637853	1.123900	7.855254	0.004144	-0.002896	-0.003794	-0.651367	0.546143	-0.518066	0.523116	-0.221232	-0.219123	-0.793341
15857		5.634023	1.124818	7.863518	0.004433	-0.002544	-0.001404	-0.657959	0.541260	-0.520752	0.523144	-0.221229	-0.219113	-0.793327
15858		5.617079	1.127882	7.854530	0.002034	-0.003415	-0.003019	-0.656250	0.532715	-0.502930	0.523116	-0.221234	-0.219099	-0.793348
15859		5.635926	1.136546	7.863178	0.005083	-0.003006	-0.002349	-0.655273	0.537109	-0.517090	0.523054	-0.221249	-0.219089	-0.793387
15860		5.640692	1.138040	7.853894	0.003965	-0.002490	-0.002127	-0.651123	0.540771	-0.511230	0.523037	-0.221235	-0.219085	-0.793404
15861		5.621330	1.110392	7.864585	0.002806	-0.002449	-0.002420	-0.653320	0.544189	-0.514648	0.523024	-0.221248	-0.219055	-0.793417
15862		5.636398	1.130121	7.861055	0.004186	-0.002421	-0.003281	-0.651855	0.547119	-0.514404	0.523014	-0.221247	-0.219043	-0.793427
15863		5.622659	1.124331	7.842684	0.005868	-0.001371	-0.004266	-0.655762	0.535156	-0.518311	0.523013	-0.221227	-0.219039	-0.793434
15864		5.622865	1.124164	7.864218	0.004609	0.000030	-0.001861	-0.652100	0.536621	-0.514893	0.523004	-0.221178	-0.219029	-0.793457
15865		5.628920	1.143441	7.878510	0.004100	-0.000392	-0.003098	-0.651367	0.536377	-0.517578	0.522988	-0.221143	-0.219013	-0.793481
