// Start Time: Unknown
// Update Rate: 40.0Hz
// Filter Profile: human (46.1)
// Firmware Version: 4.6.0
PacketCounter	SampleTimeFine	Acc_X	Acc_Y	Acc_Z	Gyr_X	Gyr_Y	Gyr_Z	Mag_X	Mag_Y	Mag_Z	Quat_q0	Quat_q1	Quat_q2	Quat_q3
15344		5.457893	-0.320963	8.039581	-0.002580	-0.001654	0.004318	-0.680420	0.351807	-0.286865	0.318619	-0.282620	-0.081647	-0.901078
15345		5.469259	-0.331273	8.030242	-0.001197	-0.002937	0.006041	-0.669922	0.343994	-0.295410	0.318680	-0.282664	-0.081624	-0.901045
15346		5.468144	-0.313033	8.039453	-0.003617	-0.003700	0.005242	-0.683105	0.344238	-0.291748	0.318724	-0.282710	-0.081583	-0.901019
15347		5.464077	-0.321349	8.061586	-0.005104	-0.001345	0.005615	-0.675781	0.345459	-0.291260	0.318767	-0.282751	-0.081512	-0.900997
15348		5.450424	-0.346525	8.047142	-0.002935	-0.003334	0.005623	-0.688232	0.353027	-0.290039	0.318817	-0.282806	-0.081472	-0.900966
15349		5.460282	-0.327728	8.037686	-0.002580	-0.001656	0.004320	-0.673828	0.347412	-0.284668	0.318855	-0.282838	-0.081433	-0.900946
15350		5.455663	-0.342196	8.024048	-0.001936	-0.001264	0.005731	-0.673584	0.355713	-0.284668	0.318912	-0.282865	-0.081393	-0.900920
15351		5.469699	-0.329663	8.047761	-0.002683	-0.000584	0.006416	-0.666016	0.343750	-0.287354	0.318976	-0.282889	-0.081339	-0.900895
15352		5.473960	-0.324690	8.025364	-0.002918	0.002582	0.010644	-0.683350	0.355713	-0.290039	0.319089	-0.282884	-0.081254	-0.900864
15353		5.425670	-0.352102	8.068075	-0.004067	0.004621	0.011707	-0.674805	0.341309	-0.291748	0.319212	-0.282864	-0.081147	-0.900837
15354		5.411257	-0.377284	8.054110	-0.000815	-0.002286	0.004706	-0.676514	0.348145	-0.289795	0.319261	-0.282893	-0.081123	-0.900812
15355		5.444163	-0.369329	8.062044	0.000688	-0.010583	-0.001719	-0.677002	0.341553	-0.284180	0.319240	-0.282998	-0.081158	-0.900784
15356		5.456522	-0.329098	8.031727	0.002948	-0.014643	-0.002810	-0.685547	0.344238	-0.289795	0.319209	-0.283137	-0.081233	-0.900744
15357		5.474959	-0.324215	8.034370	0.001435	-0.011266	-0.002400	-0.685059	0.345947	-0.291260	0.319182	-0.283242	-0.081279	-0.900717
15358		5.465930	-0.314472	8.042129	0.001624	-0.007468	-0.000543	-0.678955	0.348633	-0.290039	0.319181	-0.283306	-0.081309	-0.900694
15359		5.451567	-0.328496	8.046390	-0.002311	-0.008865	0.002024	-0.676270	0.336914	-0.289795	0.319195	-0.283404	-0.081295	-0.900660
15360		5.448331	-0.342563	8.031815	-0.002338	-0.007843	0.002059	-0.679443	0.351807	-0.291260	0.319194	-0.283481	-0.081287	-0.900636
15361		5.470535	-0.332493	8.012367	-0.000900	-0.011175	0.003716	-0.676758	0.350098	-0.298828	0.319241	-0.283593	-0.081286	-0.900585
15362		5.452852	-0.317613	8.045624	0.000793	-0.007739	0.003204	-0.671631	0.350342	-0.281494	0.319296	-0.283643	-0.081296	-0.900548
15363		5.462457	-0.333923	8.029078	-0.000036	-0.003991	0.003990	-0.682617	0.343750	-0.289795	0.319350	-0.283696	-0.081282	-0.900514
15364		5.467943	-0.330939	8.051722	-0.001393	-0.003728	0.002234	-0.675293	0.350586	-0.289795	0.319359	-0.283723	-0.081273	-0.900503
15365		5.452764	-0.335772	8.046884	-0.001156	-0.002971	0.005019	-0.677490	0.350342	-0.287598	0.319432	-0.283742	-0.081239	-0.900475
15366		5.448342	-0.359339	8.042757	0.001093	-0.004015	0.001965	-0.679932	0.348633	-0.280029	0.319472	-0.283766	-0.081246	-0.900452
15367		5.454402	-0.336457	8.045746	-0.000282	-0.005747	0.002205	-0.683105	0.354248	-0.291504	0.319488	-0.283849	-0.081242	-0.900420
15368		5.460074	-0.339367	8.032068	0.002030	-0.007839	-0.001914	-0.670654	0.341309	-0.288574	0.319501	-0.283891	-0.081280	-0.900399
15369		5.457342	-0.335957	8.043772	0.000865	-0.007792	0.001145	-0.677734	0.351807	-0.282715	0.319498	-0.283934	-0.081312	-0.900384
15370		5.463931	-0.313080	8.046399	-0.000937	-0.007139	0.001794	-0.681885	0.350586	-0.286133	0.319533	-0.284025	-0.081297	-0.900344
15371		5.476380	-0.323045	8.036261	-0.002721	-0.008508	0.003409	-0.685547	0.346924	-0.290771	0.319566	-0.284121	-0.081276	-0.900304
15372		5.462124	-0.338030	8.040439	-0.003103	-0.009167	0.004751	-0.682373	0.350342	-0.281982	0.319585	-0.284197	-0.081271	-0.900273
15373		5.468912	-0.325958	8.052540	-0.003750	-0.009560	0.003342	-0.682129	0.351074	-0.280518	0.319599	-0.284340	-0.081244	-0.900226
15374		5.456650	-0.341101	8.027481	-0.004186	-0.008173	0.004751	-0.683105	0.350342	-0.284668	0.319631	-0.284480	-0.081199	-0.900174
15375		5.451456	-0.346064	8.032418	-0.003467	-0.007831	0.004099	-0.681641	0.357178	-0.281738	0.319658	-0.284580	-0.081171	-0.900136
15376		5.467120	-0.323530	8.045425	-0.002030	-0.007147	0.002794	-0.685059	0.348389	-0.288086	0.319730	-0.284695	-0.081124	-0.900078
15377		5.454405	-0.347827	8.030340	-0.001319	-0.007804	0.003140	-0.677246	0.346436	-0.288086	0.319736	-0.284752	-0.081141	-0.900056
15378		5.474832	-0.327907	8.030269	-0.000155	-0.011874	0.003046	-0.672607	0.352783	-0.288574	0.319755	-0.284830	-0.081180	-0.900021
15379		5.485660	-0.327838	8.039456	-0.000282	-0.005755	0.002211	-0.679932	0.345703	-0.286377	0.319857	-0.284830	-0.081157	-0.899987
15380		5.470785	-0.332387	8.034451	-0.001054	-0.004050	0.002930	-0.683350	0.345947	-0.291260	0.319848	-0.284843	-0.081168	-0.899985
15381		5.475709	-0.336128	8.021209	-0.001453	-0.002686	0.003306	-0.680176	0.355957	-0.293213	0.319843	-0.284797	-0.081184	-0.900000
15382		5.446900	-0.348050	8.028619	-0.001081	-0.003027	0.002963	-0.684326	0.344971	-0.280518	0.319976	-0.284739	-0.081151	-0.899974
15383		5.486131	-0.336778	8.030641	0.000064	-0.005073	0.001901	-0.678955	0.345947	-0.288574	0.319895	-0.284838	-0.081191	-0.899968
15384		5.476227	-0.317942	8.029410	0.000045	-0.003049	0.000935	-0.682373	0.350098	-0.281982	0.319880	-0.284804	-0.081222	-0.899982
15385		5.446340	-0.355493	8.020574	-0.000718	-0.000343	0.000654	-0.679932	0.336914	-0.283447	0.319865	-0.284841	-0.081209	-0.899976
15386		5.477643	-0.311660	8.064743	0.001120	-0.005047	0.001937	-0.672852	0.344971	-0.293945	0.319708	-0.284875	-0.081306	-0.900013
15387		5.457786	-0.329402	8.046350	-0.001400	-0.004736	0.003243	-0.676514	0.347168	-0.281982	0.319790	-0.284760	-0.081329	-0.900018
15388		5.472393	-0.323002	8.033431	-0.001719	-0.006444	0.003522	-0.673828	0.352539	-0.294922	0.319802	-0.284850	-0.081317	-0.899986
15389		5.484507	-0.333330	8.023441	-0.002845	-0.006424	0.005552	-0.682861	0.345947	-0.288574	0.320021	-0.284755	-0.081280	-0.899942
15390		5.465370	-0.344985	8.040855	-0.000993	-0.005102	0.001869	-0.677002	0.340820	-0.294189	0.319965	-0.284751	-0.081325	-0.899959
15391		5.462311	-0.332438	8.043154	0.000436	-0.005416	0.001560	-0.675293	0.351318	-0.285156	0.319911	-0.284621	-0.081422	-0.900010
15392		5.467531	-0.335987	8.029702	-0.001772	-0.004397	0.003588	-0.680908	0.356201	-0.285645	0.320036	-0.284648	-0.081381	-0.899961
15393		5.477699	-0.326551	8.029670	-0.001062	-0.005055	0.003934	-0.673096	0.351807	-0.284424	0.320198	-0.284706	-0.081334	-0.899889
15394		5.462821	-0.340879	8.034334	0.000428	-0.006419	0.002561	-0.677002	0.352295	-0.291260	0.320340	-0.284747	-0.081319	-0.899827
15395		5.457333	-0.334755	8.029897	0.000816	-0.004757	0.000218	-0.686768	0.347168	-0.289062	0.320464	-0.284666	-0.081338	-0.899807
15396		5.454567	-0.321824	8.032020	0.000548	-0.008517	0.000434	-0.683838	0.347656	-0.286377	0.320357	-0.284699	-0.081431	-0.899826
15397		5.467611	-0.334225	8.067431	0.000887	-0.008835	0.001124	-0.681885	0.344482	-0.293213	0.320287	-0.284768	-0.081505	-0.899822
15398		5.471304	-0.324727	8.027298	-0.001320	-0.007816	0.003153	-0.674561	0.340088	-0.281738	0.320232	-0.284695	-0.081581	-0.899858
15399		5.459157	-0.332349	8.038527	-0.000249	-0.005787	0.001186	-0.683105	0.349854	-0.283936	0.320071	-0.284754	-0.081638	-0.899892
15400		5.476294	-0.328705	8.041927	-0.000974	-0.007133	0.002843	-0.677002	0.347412	-0.290039	0.320055	-0.284856	-0.081648	-0.899864
15401		5.471108	-0.322921	8.037276	0.000116	-0.007131	0.001845	-0.675781	0.347168	-0.292480	0.320111	-0.284798	-0.081698	-0.899858
15402		5.469547	-0.319698	8.020277	0.002139	-0.000973	0.000036	-0.676514	0.357422	-0.280029	0.320192	-0.284606	-0.081762	-0.899884
15403		5.440695	-0.350164	8.047163	0.000867	-0.006811	0.000158	-0.681641	0.348145	-0.290039	0.320398	-0.284758	-0.081708	-0.899767
15404		5.441200	-0.311117	8.036158	0.001244	-0.011185	0.002787	-0.687012	0.348389	-0.282959	0.320406	-0.284766	-0.081793	-0.899754
15405		5.486091	-0.312376	8.033993	0.000280	-0.012285	0.000660	-0.683350	0.343506	-0.281494	0.320270	-0.284954	-0.081869	-0.899737
15406		5.492493	-0.325672	8.029363	-0.002297	-0.010925	0.003035	-0.683350	0.344727	-0.285156	0.320075	-0.285129	-0.081925	-0.899745
15407		5.474514	-0.317965	8.026740	-0.004462	-0.008927	0.003032	-0.677246	0.344727	-0.281738	0.319940	-0.285217	-0.081954	-0.899763
15408		5.480438	-0.332021	8.022401	-0.001365	-0.009806	0.006198	-0.686035	0.343750	-0.284912	0.319916	-0.285334	-0.081977	-0.899732
15409		5.470252	-0.349901	8.013973	-0.002740	-0.006506	0.002472	-0.676758	0.350342	-0.284668	0.319721	-0.285397	-0.082036	-0.899776
15410		5.489866	-0.339980	8.024056	-0.002362	-0.005845	0.001127	-0.678467	0.354980	-0.286133	0.319818	-0.285417	-0.082012	-0.899738
15411		5.483015	-0.305105	8.019551	0.000025	-0.006065	0.003947	-0.680176	0.350098	-0.299316	0.320046	-0.285426	-0.081975	-0.899657
15412		5.481172	-0.332013	8.031690	-0.001455	-0.003698	0.004320	-0.675537	0.344727	-0.283203	0.320249	-0.285141	-0.082022	-0.899671
15413		5.466349	-0.336924	8.026690	-0.001038	-0.007096	0.004918	-0.679688	0.352295	-0.288818	0.320238	-0.285186	-0.082044	-0.899658
15414		5.481021	-0.340145	8.023309	-0.000596	-0.006480	0.001507	-0.677002	0.345703	-0.287109	0.320373	-0.285148	-0.082055	-0.899621
15415		5.480578	-0.311088	8.022621	0.001408	-0.003326	0.002696	-0.685791	0.351318	-0.292236	0.320383	-0.285069	-0.082111	-0.899638
15416		5.485000	-0.333950	8.028996	-0.000385	-0.001666	0.002349	-0.675049	0.344727	-0.293457	0.320442	-0.284944	-0.082144	-0.899653
15417		5.442838	-0.333189	8.029373	-0.000730	-0.002352	0.002662	-0.676025	0.349365	-0.288330	0.320503	-0.284723	-0.082200	-0.899696
15418		5.485904	-0.334796	8.028343	0.000012	-0.003034	0.001975	-0.684570	0.339111	-0.289551	0.320622	-0.284635	-0.082212	-0.899681
15419		5.496228	-0.315243	8.018527	-0.000660	-0.006436	0.003574	-0.687012	0.354492	-0.285889	0.320335	-0.284593	-0.082334	-0.899785
15420		5.471781	-0.339712	8.022871	-0.000013	-0.002008	0.002006	-0.678467	0.348145	-0.288330	0.320394	-0.284632	-0.082319	-0.899753
15421		5.467977	-0.337027	8.035386	-0.001070	-0.002034	0.001974	-0.681152	0.345703	-0.282471	0.320444	-0.284552	-0.082330	-0.899760
15422		5.469562	-0.320937	8.061083	0.001120	-0.005063	0.001947	-0.680420	0.348633	-0.280518	0.320329	-0.284630	-0.082379	-0.899771
15423		5.489927	-0.317155	8.006180	-0.001736	-0.004432	0.002572	-0.689697	0.351562	-0.282471	0.320286	-0.284755	-0.082355	-0.899750
15424		5.472877	-0.331680	8.040419	-0.001076	-0.003038	0.002977	-0.682373	0.347168	-0.287842	0.320197	-0.284883	-0.082344	-0.899741
15425		5.467266	-0.326157	8.036069	-0.001006	-0.007124	0.003891	-0.682861	0.348145	-0.291992	0.320181	-0.284886	-0.082390	-0.899742
15426		5.463697	-0.330292	8.011958	0.000050	-0.007099	0.003923	-0.682373	0.350098	-0.285645	0.320228	-0.284805	-0.082460	-0.899745
15427		5.485904	-0.313709	8.028696	-0.002767	-0.005486	0.002512	-0.684570	0.337891	-0.291748	0.320240	-0.284849	-0.082447	-0.899728
15428		5.465804	-0.341771	8.020117	-0.002484	-0.004756	0.004265	-0.686768	0.344482	-0.288574	0.320013	-0.284738	-0.082572	-0.899832
15429		5.475550	-0.352133	8.039668	-0.002503	-0.002724	0.003292	-0.678711	0.354248	-0.294189	0.319873	-0.284703	-0.082622	-0.899888
15430		5.472299	-0.320235	8.022819	0.001069	-0.003012	0.002008	-0.680908	0.345215	-0.285889	0.320150	-0.284524	-0.082635	-0.899845
15431		5.464709	-0.314601	8.047885	-0.002453	-0.004779	0.003233	-0.686279	0.348389	-0.291504	0.320086	-0.284539	-0.082656	-0.899861
15432		5.475787	-0.351148	8.021315	-0.002107	-0.009142	0.006904	-0.679688	0.350098	-0.283936	0.320109	-0.284534	-0.082698	-0.899851
15433		5.473243	-0.329685	8.013626	-0.002113	-0.005100	0.003924	-0.683594	0.348877	-0.281494	0.320167	-0.284596	-0.082666	-0.899813
15434		5.485540	-0.323702	8.030205	-0.003269	-0.001015	0.004012	-0.679199	0.345703	-0.284424	0.320111	-0.284684	-0.082614	-0.899811
15435		5.472616	-0.322171	8.032362	-0.001823	-0.003365	0.004673	-0.687500	0.355469	-0.283691	0.320095	-0.284695	-0.082618	-0.899812
15436		5.461138	-0.340076	8.024799	-0.002583	-0.000649	0.004388	-0.677979	0.347656	-0.288086	0.320147	-0.284773	-0.082534	-0.899777
15437		5.463528	-0.344125	8.041231	-0.000835	0.000748	0.003790	-0.675781	0.347168	-0.285156	0.320225	-0.284658	-0.082534	-0.899786
15438		5.461221	-0.341649	8.024676	-0.000761	-0.002335	0.003701	-0.679199	0.350342	-0.293945	0.320290	-0.284622	-0.082531	-0.899774
15439		5.471003	-0.341790	8.034555	-0.001020	-0.004092	0.001918	-0.675293	0.341553	-0.286377	0.320431	-0.284466	-0.082560	-0.899770
15440		5.460177	-0.349277	8.016907	0.000030	-0.005073	0.002953	-0.674072	0.346680	-0.283936	0.320368	-0.284420	-0.082629	-0.899801
15441		5.464573	-0.326625	8.049187	-0.000304	-0.003748	0.001260	-0.683350	0.355225	-0.285645	0.320405	-0.284413	-0.082637	-0.899789
15442		5.472283	-0.313557	8.032728	0.001055	-0.005027	0.004018	-0.679443	0.351074	-0.290527	0.320545	-0.284466	-0.082619	-0.899725
15443		5.466451	-0.317529	8.038221	-0.001020	-0.004093	0.001919	-0.673340	0.342041	-0.296631	0.320660	-0.284385	-0.082627	-0.899708
15444		5.462356	-0.331445	8.024105	-0.001719	-0.006473	0.003554	-0.682373	0.352783	-0.285400	0.320715	-0.284161	-0.082711	-0.899752
15445		5.466171	-0.325555	8.029917	-0.002028	-0.006175	0.001831	-0.678223	0.341797	-0.284668	0.320775	-0.284233	-0.082690	-0.899709
15446		5.476729	-0.325818	8.039263	-0.001324	-0.007843	0.003181	-0.674316	0.346191	-0.283447	0.320633	-0.284281	-0.082745	-0.899740
15447		5.462252	-0.330494	8.034074	-0.001688	-0.006496	0.002522	-0.681396	0.354004	-0.288574	0.320646	-0.284324	-0.082746	-0.899722
15448		5.463269	-0.340716	8.043028	0.001086	-0.005052	0.002986	-0.677979	0.346924	-0.291260	0.320807	-0.284305	-0.082755	-0.899669
15449		5.471243	-0.327696	8.026375	-0.000632	-0.006472	0.002553	-0.674316	0.349121	-0.287354	0.320853	-0.284221	-0.082806	-0.899675
15450		5.465625	-0.341498	8.041394	-0.001312	-0.005832	0.001174	-0.685791	0.351318	-0.286377	0.320954	-0.284190	-0.082810	-0.899648
15451		5.473461	-0.348020	8.044163	-0.000571	-0.006516	0.000485	-0.674072	0.344482	-0.288574	0.320931	-0.284253	-0.082838	-0.899634
15452		5.477566	-0.322250	8.030463	-0.001688	-0.006498	0.002525	-0.685547	0.341553	-0.291748	0.320938	-0.284196	-0.082869	-0.899646
15453		5.482766	-0.335686	8.026565	-0.000656	-0.005446	0.002584	-0.679932	0.348145	-0.288330	0.320745	-0.284126	-0.082968	-0.899729
15454		5.461189	-0.353127	8.037465	0.001201	-0.006147	-0.000144	-0.679443	0.344727	-0.286133	0.320749	-0.284102	-0.083029	-0.899729
15455		5.470556	-0.313602	8.037095	0.000819	-0.007821	0.002212	-0.680420	0.350342	-0.286865	0.320679	-0.284129	-0.083094	-0.899739
15456		5.480225	-0.339528	8.029831	-0.000553	-0.008554	0.001465	-0.684570	0.350342	-0.282959	0.320730	-0.284175	-0.083117	-0.899705
15457		5.459015	-0.337538	8.021151	-0.000620	-0.004461	0.000546	-0.684570	0.345215	-0.287354	0.320678	-0.284265	-0.083120	-0.899695
15458		5.478955	-0.326976	8.031017	-0.000100	-0.009969	-0.000976	-0.679688	0.347168	-0.285645	0.320528	-0.284320	-0.083208	-0.899722
15459		5.474543	-0.321032	8.025898	-0.001227	-0.011969	0.003077	-0.674072	0.349365	-0.282227	0.320523	-0.284412	-0.083246	-0.899691
15460		5.476479	-0.331590	8.034219	-0.002696	-0.008586	0.002446	-0.672607	0.350098	-0.284912	0.320612	-0.284503	-0.083215	-0.899634
15461		5.477766	-0.342058	8.042988	-0.000655	-0.005450	0.002588	-0.676758	0.352539	-0.292725	0.320776	-0.284494	-0.083201	-0.899580
15462		5.467367	-0.339355	8.015383	0.001594	-0.007523	-0.000514	-0.679443	0.346436	-0.286377	0.320974	-0.284391	-0.083257	-0.899537
15463		5.479323	-0.322538	8.050728	0.000157	-0.009223	0.001816	-0.678467	0.339355	-0.290039	0.320945	-0.284427	-0.083311	-0.899530
15464		5.505434	-0.325057	8.027859	-0.001562	-0.010645	0.001388	-0.687744	0.347168	-0.290527	0.320774	-0.284402	-0.083405	-0.899591
15465		5.481726	-0.339469	8.022131	0.000436	-0.004440	0.000578	-0.670898	0.342041	-0.293213	0.320687	-0.284357	-0.083476	-0.899629
15466		5.471787	-0.320395	8.021147	0.000389	-0.002380	0.000634	-0.681885	0.345947	-0.285156	0.320750	-0.284143	-0.083547	-0.899668
15467		5.472279	-0.320668	8.020801	-0.000384	-0.002684	0.003365	-0.681641	0.354980	-0.282959	0.320696	-0.284148	-0.083560	-0.899684
15468		5.473176	-0.321280	8.020164	-0.001687	-0.006507	0.002536	-0.678467	0.351807	-0.287109	0.320828	-0.284255	-0.083519	-0.899607
15469		5.492749	-0.331079	8.049590	-0.002085	-0.006145	0.003916	-0.684082	0.345215	-0.291748	0.320979	-0.284266	-0.083498	-0.899552
15470		5.481860	-0.339018	8.031955	-0.001786	-0.003398	0.003655	-0.672363	0.347656	-0.287842	0.320931	-0.284183	-0.083534	-0.899592
15471		5.466974	-0.333850	8.017412	-0.000971	-0.006163	0.001875	-0.686279	0.339844	-0.291748	0.321048	-0.284136	-0.083547	-0.899564
15472		5.477432	-0.333987	8.026820	-0.000659	-0.006464	0.003600	-0.679443	0.346436	-0.288574	0.320835	-0.284087	-0.083636	-0.899647
15473		5.487795	-0.324507	8.026606	-0.000734	-0.004384	0.004691	-0.683105	0.344727	-0.292480	0.320872	-0.284046	-0.083655	-0.899645
15474		5.469846	-0.345134	8.025070	0.000445	-0.002423	-0.001435	-0.675537	0.344482	-0.291504	0.320789	-0.283927	-0.083731	-0.899705
15475		5.476201	-0.312353	8.018297	0.000080	-0.007150	0.002912	-0.677246	0.346680	-0.290039	0.320846	-0.283846	-0.083791	-0.899705
15476		5.486578	-0.322282	8.037441	-0.001710	-0.005481	0.002568	-0.685547	0.345947	-0.295654	0.320907	-0.283792	-0.083810	-0.899698
15477		5.482567	-0.336342	8.023215	-0.002402	-0.006858	0.003204	-0.683594	0.352295	-0.294434	0.320887	-0.283711	-0.083863	-0.899726
15478		5.479958	-0.324066	8.025336	0.000108	-0.007172	0.001878	-0.673340	0.345459	-0.291016	0.321031	-0.283647	-0.083912	-0.899690
15479		5.471774	-0.344180	8.033715	0.001118	-0.005087	0.001960	-0.681396	0.342529	-0.296143	0.321120	-0.283546	-0.083965	-0.899685
15480		5.482271	-0.314492	8.014064	0.000089	-0.005132	0.000899	-0.685303	0.353271	-0.286621	0.321050	-0.283407	-0.084050	-0.899746
15481		5.469765	-0.321781	8.025763	-0.000303	-0.003760	0.001271	-0.680176	0.344482	-0.286377	0.321125	-0.283443	-0.084050	-0.899708
15482		5.488013	-0.328116	8.009742	-0.002107	-0.005121	0.003951	-0.676514	0.338135	-0.291748	0.321067	-0.283466	-0.084052	-0.899721
15483		5.478279	-0.329336	8.027996	-0.000654	-0.005459	0.002598	-0.682861	0.341309	-0.292969	0.320937	-0.283374	-0.084116	-0.899791
15484		5.493865	-0.316018	8.050849	0.000772	-0.005778	0.002280	-0.683838	0.350098	-0.278076	0.320821	-0.283300	-0.084199	-0.899848
15485		5.473921	-0.314271	8.013152	-0.002134	-0.005102	0.004988	-0.677490	0.350098	-0.282715	0.320780	-0.283481	-0.084138	-0.899811
15486		5.478663	-0.347405	8.028880	0.000379	-0.004406	0.002653	-0.678467	0.348145	-0.293701	0.320859	-0.283537	-0.084126	-0.899766
15487		5.475725	-0.334742	8.031255	0.000111	-0.006166	0.000874	-0.675049	0.341064	-0.288818	0.320961	-0.283447	-0.084183	-0.899753
15488		5.472724	-0.322125	8.033674	-0.000331	-0.003742	0.002308	-0.672852	0.343018	-0.288818	0.320911	-0.283379	-0.084220	-0.899789
15489		5.495145	-0.331617	8.004706	-0.001742	-0.006477	0.004618	-0.679688	0.344238	-0.291260	0.320960	-0.283343	-0.084236	-0.899781
15490		5.474824	-0.343266	8.051552	-0.000685	-0.006454	0.004645	-0.674561	0.350586	-0.287109	0.320967	-0.283304	-0.084274	-0.899787
15491		5.472100	-0.321176	8.044090	-0.000627	-0.005483	0.001566	-0.678467	0.342773	-0.285889	0.321130	-0.283299	-0.084278	-0.899730
15492		5.489187	-0.317810	8.047371	-0.002056	-0.006176	0.002895	-0.683594	0.346436	-0.286133	0.321034	-0.283332	-0.084284	-0.899753
15493		5.491781	-0.328442	8.027011	-0.002452	-0.005814	0.004276	-0.678955	0.352295	-0.289551	0.320977	-0.283391	-0.084273	-0.899756
15494		5.474469	-0.320303	7.995978	-0.001711	-0.005488	0.002577	-0.682373	0.345215	-0.277100	0.321144	-0.283379	-0.084268	-0.899701
15495		5.477957	-0.333981	8.021416	-0.001392	-0.004780	0.003294	-0.677734	0.342529	-0.297363	0.320984	-0.283540	-0.084235	-0.899711
15496		5.465774	-0.331828	8.023230	-0.000605	-0.006517	0.001542	-0.678223	0.344482	-0.289795	0.321007	-0.283397	-0.084317	-0.899739
15497		5.483073	-0.328282	8.026365	-0.000951	-0.007206	0.001861	-0.675781	0.348633	-0.289795	0.320995	-0.283380	-0.084356	-0.899746
15498		5.484500	-0.318847	8.015687	0.000425	-0.006474	0.002604	-0.686768	0.348389	-0.288574	0.321132	-0.283346	-0.084391	-0.899704
15499		5.485609	-0.328947	8.024604	-0.000628	-0.005486	0.001569	-0.680176	0.358643	-0.288574	0.321082	-0.283373	-0.084415	-0.899711
15500		5.482633	-0.316360	8.027025	-0.000624	-0.004474	0.000560	-0.678711	0.342773	-0.287109	0.321347	-0.283375	-0.084402	-0.899617
15501		5.487406	-0.329585	8.023349	-0.000357	-0.003726	0.003348	-0.683594	0.350342	-0.284180	0.321277	-0.283357	-0.084420	-0.899646
15502		5.505467	-0.335722	8.007378	-0.000304	-0.003766	0.001277	-0.679932	0.347412	-0.288086	0.321279	-0.283411	-0.084418	-0.899629
15503		5.471380	-0.334144	8.047583	0.000730	-0.002710	0.001328	-0.676025	0.349609	-0.284180	0.321296	-0.283374	-0.084443	-0.899632
15504		5.492118	-0.323722	8.028582	0.000354	-0.004393	0.003693	-0.672607	0.343018	-0.286377	0.321401	-0.283401	-0.084438	-0.899586
15505		5.477184	-0.328083	8.023811	-0.001316	-0.005854	0.001201	-0.684326	0.338379	-0.286377	0.321375	-0.283392	-0.084451	-0.899597
15506		5.480787	-0.341393	8.049203	0.000060	-0.005122	0.001942	-0.677979	0.346680	-0.287842	0.321116	-0.283414	-0.084498	-0.899678
15507		5.486231	-0.325249	8.015988	-0.000267	-0.007857	0.003247	-0.685059	0.343262	-0.291260	0.321156	-0.283435	-0.084525	-0.899655
15508		5.483625	-0.322777	8.027844	-0.001688	-0.006526	0.002558	-0.677490	0.348389	-0.285400	0.321051	-0.283425	-0.084561	-0.899692
15509		5.488770	-0.336152	8.023897	-0.000628	-0.005490	0.001573	-0.689941	0.348633	-0.283691	0.321096	-0.283452	-0.084564	-0.899667
15510		5.476384	-0.324149	8.016187	-0.001067	-0.003063	0.003006	-0.678223	0.346680	-0.284180	0.320991	-0.283531	-0.084547	-0.899681
15511		5.490228	-0.337276	8.022853	-0.000724	-0.003387	0.003697	-0.677246	0.348877	-0.288574	0.321004	-0.283552	-0.084534	-0.899672
15512		5.469592	-0.328862	8.050693	0.000726	-0.003726	0.002340	-0.690674	0.342773	-0.292725	0.321104	-0.283511	-0.084553	-0.899647
15513		5.481023	-0.328585	8.031149	-0.000305	-0.003768	0.001280	-0.679688	0.349365	-0.284912	0.320940	-0.283467	-0.084611	-0.899714
15514		5.497844	-0.315238	8.024892	-0.000676	-0.004439	0.002636	-0.678955	0.344482	-0.290039	0.320981	-0.283500	-0.084599	-0.899690
15515		5.473412	-0.329860	8.019750	0.000329	-0.004378	0.004733	-0.682373	0.347656	-0.289551	0.321012	-0.283453	-0.084629	-0.899691
15516		5.470311	-0.317611	8.022264	-0.000702	-0.004421	0.003673	-0.674316	0.350098	-0.293457	0.321041	-0.283437	-0.084639	-0.899685
15517		5.477828	-0.324294	8.025183	-0.000283	-0.004802	0.001255	-0.678955	0.343506	-0.290771	0.321223	-0.283343	-0.084669	-0.899646
15518		5.476144	-0.331432	8.017820	-0.002079	-0.005154	0.002934	-0.681396	0.357666	-0.291992	0.321202	-0.283305	-0.084684	-0.899664
15519		5.466626	-0.323078	8.026334	-0.002107	-0.006150	0.004982	-0.686768	0.338379	-0.287842	0.321465	-0.283302	-0.084659	-0.899574
15520		5.475539	-0.339855	8.009663	-0.001387	-0.003775	0.002294	-0.684570	0.348633	-0.285400	0.321225	-0.283305	-0.084688	-0.899656
15521		5.481681	-0.327173	8.022434	-0.000676	-0.004442	0.002638	-0.682617	0.351074	-0.290283	0.321198	-0.283353	-0.084684	-0.899651
15522		5.469131	-0.324853	8.024556	0.000016	-0.003062	0.001997	-0.678223	0.340332	-0.284668	0.321275	-0.283317	-0.084694	-0.899634
15523		5.479522	-0.324993	8.033999	-0.000982	-0.008214	0.003921	-0.683350	0.347168	-0.285400	0.321165	-0.283378	-0.084716	-0.899652
15524		5.484733	-0.328663	8.020287	-0.001019	-0.004119	0.001949	-0.685547	0.350342	-0.274414	0.321115	-0.283413	-0.084712	-0.899659
15525		5.474938	-0.329356	8.038732	0.001805	-0.004740	0.002341	-0.683105	0.344482	-0.285889	0.321016	-0.283591	-0.084688	-0.899641
15526		5.476016	-0.329458	8.037993	0.000081	-0.006163	0.001924	-0.677246	0.344727	-0.286377	0.320933	-0.283629	-0.084717	-0.899656
15527		5.483804	-0.326165	8.031030	0.000059	-0.005130	0.001949	-0.672363	0.352051	-0.289307	0.320926	-0.283626	-0.084738	-0.899657
15528		5.469049	-0.320922	8.016465	-0.002771	-0.006539	0.003582	-0.683350	0.347656	-0.285889	0.321126	-0.283613	-0.084710	-0.899592
15529		5.483236	-0.344076	8.032552	-0.002419	-0.003819	0.001237	-0.684814	0.345215	-0.285156	0.321079	-0.283640	-0.084693	-0.899602
15530		5.479986	-0.341497	8.044890	0.000702	-0.003713	0.003380	-0.677246	0.342285	-0.281250	0.321007	-0.283664	-0.084709	-0.899619
15531		5.474203	-0.335488	8.040776	0.000748	-0.004765	0.002319	-0.679688	0.345459	-0.289307	0.320920	-0.283711	-0.084723	-0.899634
15532		5.484661	-0.315837	8.030786	-0.001319	-0.005864	0.001212	-0.679688	0.341309	-0.273193	0.320911	-0.283696	-0.084744	-0.899639
15533		5.485884	-0.316472	8.029925	-0.001714	-0.006518	0.003607	-0.682129	0.350342	-0.285400	0.320712	-0.283874	-0.084702	-0.899658
15534		5.490968	-0.320221	8.016278	-0.000333	-0.004771	0.003334	-0.677002	0.346191	-0.289062	0.320741	-0.283907	-0.084687	-0.899639
15535		5.468040	-0.328329	8.047000	-0.001344	-0.005847	0.002250	-0.674316	0.349609	-0.281982	0.320788	-0.283885	-0.084701	-0.899628
15536		5.475787	-0.325382	8.040041	-0.001022	-0.005138	0.002966	-0.688721	0.349854	-0.289062	0.320857	-0.283933	-0.084670	-0.899591
15537		5.471185	-0.329154	8.016464	0.001395	-0.002334	0.002738	-0.682373	0.345459	-0.291992	0.320844	-0.283912	-0.084688	-0.899601
15538		5.470768	-0.319661	8.035401	0.000423	-0.006493	0.002619	-0.678467	0.345947	-0.291748	0.320854	-0.283876	-0.084739	-0.899603
15539		5.469621	-0.316664	8.017974	0.000490	-0.008580	0.001534	-0.677246	0.346680	-0.282471	0.320897	-0.283852	-0.084798	-0.899590
15540		5.473933	-0.320382	8.033216	-0.002038	-0.008247	0.003910	-0.675537	0.340576	-0.289307	0.320898	-0.283939	-0.084777	-0.899564
15541		5.499372	-0.333435	8.020078	-0.002406	-0.007905	0.004257	-0.684082	0.353027	-0.284424	0.320894	-0.283928	-0.084800	-0.899567
15542		5.487311	-0.331602	8.021887	-0.001732	-0.004472	0.002625	-0.683838	0.348877	-0.285156	0.320922	-0.283984	-0.084759	-0.899543
15543		5.494623	-0.338308	8.024917	0.000706	-0.002702	0.002370	-0.678467	0.342285	-0.290771	0.320906	-0.283991	-0.084759	-0.899547
15544		5.482131	-0.316297	8.007649	0.000358	-0.004410	0.003706	-0.676514	0.346680	-0.281982	0.320917	-0.283927	-0.084801	-0.899559
15545		5.476338	-0.330378	8.022933	-0.001092	-0.005088	0.006081	-0.682861	0.345459	-0.285400	0.320951	-0.283978	-0.084769	-0.899534
15546		5.480110	-0.324514	8.028838	-0.001321	-0.005869	0.001219	-0.683838	0.335449	-0.291016	0.320875	-0.284015	-0.084774	-0.899549
15547		5.478538	-0.321842	8.011678	-0.001022	-0.005143	0.002971	-0.675293	0.358887	-0.287842	0.320725	-0.283967	-0.084831	-0.899612
15548		5.475766	-0.319438	8.023719	-0.001347	-0.006870	0.003271	-0.682129	0.344971	-0.289551	0.320959	-0.283990	-0.084794	-0.899525
15549		5.487631	-0.339467	8.023140	-0.002427	-0.006875	0.004287	-0.687988	0.348389	-0.281738	0.320950	-0.283997	-0.084797	-0.899525
15550		5.481032	-0.324357	8.038270	-0.001345	-0.005854	0.002258	-0.683105	0.342773	-0.292480	0.320843	-0.284097	-0.084775	-0.899534
15551		5.488950	-0.311448	8.021478	0.000423	-0.006501	0.002624	-0.679932	0.343750	-0.288086	0.320819	-0.284053	-0.084835	-0.899551
15552		5.471362	-0.332169	8.019775	-0.001022	-0.005145	0.002974	-0.683838	0.348633	-0.282471	0.320801	-0.284039	-0.084850	-0.899561
15553		5.472179	-0.332568	8.019201	-0.000995	-0.003128	-0.000091	-0.679199	0.349365	-0.281494	0.320721	-0.284081	-0.084827	-0.899578
15554		5.495387	-0.335192	8.026254	0.000017	-0.003071	0.002005	-0.675293	0.352295	-0.285400	0.320716	-0.284115	-0.084801	-0.899571
15555		5.489581	-0.319627	8.012463	-0.001388	-0.004803	0.003321	-0.681152	0.350586	-0.283447	0.320832	-0.284127	-0.084767	-0.899529
15556		5.470341	-0.330835	8.030592	0.000661	-0.002670	0.004447	-0.676025	0.349365	-0.290283	0.320871	-0.284145	-0.084743	-0.899512
15557		5.483037	-0.324341	8.046971	0.000014	-0.004089	0.003019	-0.679688	0.350830	-0.292236	0.320983	-0.284089	-0.084753	-0.899489
15558		5.475884	-0.344834	8.026271	-0.002081	-0.006188	0.003969	-0.685059	0.345703	-0.285889	0.321092	-0.284062	-0.084748	-0.899459
15559		5.476937	-0.326111	8.006110	-0.002443	-0.003808	0.002288	-0.685547	0.345947	-0.281250	0.321017	-0.284081	-0.084730	-0.899482
15560		5.484371	-0.342934	8.018730	-0.000010	-0.005092	0.005072	-0.677490	0.343994	-0.295166	0.320943	-0.284156	-0.084717	-0.899485
15561		5.490755	-0.330184	8.031394	-0.000631	-0.004491	0.000578	-0.680908	0.347656	-0.294189	0.320982	-0.284050	-0.084766	-0.899500
15562		5.471767	-0.321631	8.029970	-0.001733	-0.004479	0.002633	-0.681641	0.340332	-0.279785	0.321041	-0.283981	-0.084780	-0.899500
15563		5.490032	-0.328214	8.013609	-0.001714	-0.006534	0.003625	-0.685303	0.346680	-0.283447	0.320894	-0.284070	-0.084766	-0.899525
15564		5.461683	-0.349716	8.031130	-0.001753	-0.003444	0.002657	-0.677490	0.347168	-0.280518	0.320814	-0.284109	-0.084737	-0.899544
15565		5.485195	-0.333188	8.018530	-0.001022	-0.005150	0.002978	-0.682129	0.352783	-0.289062	0.320794	-0.284170	-0.084708	-0.899535
15566		5.472953	-0.330807	8.020536	0.000079	-0.005162	0.000923	-0.689209	0.339355	-0.281738	0.320845	-0.284163	-0.084713	-0.899518
15567		5.479404	-0.317676	8.033179	0.000769	-0.004797	0.001291	-0.686768	0.349121	-0.286865	0.320629	-0.284219	-0.084742	-0.899575
15568		5.484334	-0.311258	8.009886	-0.001022	-0.005151	0.002980	-0.677979	0.346924	-0.288818	0.320594	-0.284247	-0.084729	-0.899580
15569		5.482672	-0.338265	8.021868	-0.001736	-0.006520	0.004666	-0.677246	0.346436	-0.275391	0.320656	-0.284244	-0.084725	-0.899559
15570		5.479937	-0.326015	8.024220	0.000057	-0.005147	0.001963	-0.690430	0.348877	-0.290283	0.320577	-0.284344	-0.084693	-0.899559
15571		5.490230	-0.316150	8.024020	0.000037	-0.004111	0.001985	-0.683838	0.350098	-0.284912	0.320529	-0.284331	-0.084706	-0.899579
15572		5.475042	-0.330365	8.029218	-0.001754	-0.004466	0.003675	-0.684326	0.351562	-0.287598	0.320519	-0.284366	-0.084667	-0.899575
15573		5.479948	-0.324479	8.005909	-0.001734	-0.005502	0.003653	-0.691162	0.344971	-0.289062	0.320537	-0.284391	-0.084638	-0.899563
15574		5.486302	-0.331632	8.038008	-0.001042	-0.004118	0.003005	-0.678223	0.343262	-0.278076	0.320450	-0.284388	-0.084647	-0.899594
15575		5.477778	-0.322943	8.017549	-0.002120	-0.004123	0.004024	-0.679688	0.343506	-0.285645	0.320378	-0.284453	-0.084602	-0.899604
15576		5.478649	-0.333544	8.026626	-0.001022	-0.005155	0.002983	-0.678711	0.347168	-0.291016	0.320354	-0.284456	-0.084608	-0.899611
15577		5.479769	-0.324261	8.016136	-0.001325	-0.005881	0.001232	-0.682617	0.338623	-0.284912	0.320396	-0.284420	-0.084627	-0.899605
15578		5.487332	-0.331234	8.018951	-0.002464	-0.003797	0.003334	-0.676025	0.346924	-0.288574	0.320298	-0.284419	-0.084625	-0.899641
15579		5.481566	-0.335366	8.024558	0.000056	-0.005151	0.001965	-0.681396	0.346191	-0.289551	0.320358	-0.284385	-0.084645	-0.899628
15580		5.485399	-0.329087	8.030462	-0.000290	-0.005844	0.002290	-0.680420	0.347656	-0.292236	0.320367	-0.284367	-0.084667	-0.899629
15581		5.483925	-0.326493	8.013202	-0.001369	-0.006870	0.004326	-0.678223	0.345703	-0.286133	0.320440	-0.284342	-0.084680	-0.899609
15582		5.482307	-0.333960	8.005732	-0.001409	-0.004797	0.004371	-0.686768	0.348145	-0.291260	0.320464	-0.284341	-0.084666	-0.899602
15583		5.456823	-0.338806	8.020211	-0.000269	-0.005862	0.001253	-0.673340	0.343750	-0.281250	0.320441	-0.284326	-0.084690	-0.899613
15584		5.487397	-0.328334	8.010750	-0.000983	-0.007232	0.002942	-0.681641	0.349121	-0.281738	0.320433	-0.284376	-0.084683	-0.899601
15585		5.478194	-0.319291	8.019261	0.000787	-0.005841	0.001273	-0.678467	0.345947	-0.288086	0.320388	-0.284432	-0.084678	-0.899600
15586		5.476522	-0.326481	8.011839	-0.003156	-0.005186	0.003989	-0.682129	0.349365	-0.282715	0.320419	-0.284424	-0.084654	-0.899593
15587		5.487070	-0.327020	8.021140	-0.000292	-0.006869	0.003310	-0.683838	0.352539	-0.290039	0.320399	-0.284489	-0.084637	-0.899582
15588		5.478920	-0.337546	8.019855	0.000746	-0.005811	0.003351	-0.678467	0.347168	-0.285156	0.320456	-0.284482	-0.084645	-0.899563
15589		5.485589	-0.324810	8.032365	-0.001347	-0.005870	0.002276	-0.676270	0.347168	-0.288330	0.320457	-0.284502	-0.084635	-0.899557
15590		5.480157	-0.309296	8.018347	-0.001347	-0.005870	0.002277	-0.682129	0.351562	-0.279541	0.320505	-0.284485	-0.084638	-0.899545
15591		5.475767	-0.342837	8.023644	-0.001043	-0.006168	0.005046	-0.687500	0.346924	-0.290039	0.320499	-0.284579	-0.084587	-0.899522
15592		5.483581	-0.339596	8.016582	0.001863	-0.005839	0.000254	-0.683594	0.348389	-0.293945	0.320446	-0.284562	-0.084637	-0.899542
15593		5.484405	-0.339537	8.016021	-0.000673	-0.002425	0.000630	-0.675293	0.349121	-0.292969	0.320470	-0.284476	-0.084654	-0.899559
15594		5.483983	-0.330135	8.035102	0.000382	-0.004448	0.002683	-0.680664	0.345947	-0.288574	0.320587	-0.284398	-0.084681	-0.899539
15595		5.479555	-0.324440	8.001587	-0.002790	-0.006556	0.004665	-0.690674	0.346191	-0.284424	0.320604	-0.284408	-0.084663	-0.899532
15596		5.476658	-0.342140	8.033198	-0.002482	-0.003787	0.004382	-0.676270	0.342529	-0.281738	0.320511	-0.284448	-0.084622	-0.899556
15597		5.477304	-0.333180	8.023013	-0.001405	-0.002760	0.002344	-0.682129	0.356445	-0.287354	0.320467	-0.284447	-0.084599	-0.899574
15598		5.476984	-0.314236	8.032317	-0.001347	-0.004851	0.001262	-0.693115	0.347656	-0.293213	0.320516	-0.284463	-0.084566	-0.899555
15599		5.484579	-0.321413	8.035084	-0.003175	-0.005176	0.005036	-0.680420	0.350830	-0.281738	0.320485	-0.284455	-0.084546	-0.899570
15600		5.499905	-0.334811	8.012023	-0.001022	-0.005165	0.002993	-0.689453	0.343262	-0.289795	0.320479	-0.284507	-0.084509	-0.899559
15601		5.480921	-0.326424	8.010708	-0.001406	-0.003784	0.003363	-0.687500	0.345703	-0.285889	0.320410	-0.284484	-0.084513	-0.899591
15602		5.484830	-0.330381	8.026266	-0.001330	-0.007937	0.003279	-0.681885	0.348389	-0.291504	0.320340	-0.284541	-0.084511	-0.899598
15603		5.482149	-0.327825	8.038353	-0.001347	-0.003830	0.000246	-0.679932	0.351807	-0.285645	0.320346	-0.284491	-0.084517	-0.899611
15604		5.493566	-0.317884	8.008830	-0.000637	-0.005526	0.001608	-0.678955	0.344971	-0.285645	0.320362	-0.284512	-0.084501	-0.899600
15605		5.481238	-0.345035	8.040098	-0.001040	-0.004129	0.003016	-0.679199	0.345459	-0.289551	0.320356	-0.284502	-0.084492	-0.899606
15606		5.487841	-0.312854	8.033254	-0.001003	-0.006206	0.002975	-0.687012	0.349365	-0.284668	0.320377	-0.284485	-0.084505	-0.899603
15607		5.480567	-0.333457	8.012523	-0.002462	-0.004830	0.004367	-0.678223	0.355469	-0.291016	0.320341	-0.284528	-0.084458	-0.899607
15608		5.493733	-0.317626	8.018876	-0.001021	-0.005169	0.002997	-0.677246	0.346680	-0.293213	0.320445	-0.284506	-0.084439	-0.899578
15609		5.491821	-0.324994	8.011592	-0.002462	-0.003808	0.003349	-0.672363	0.343506	-0.284668	0.320512	-0.284435	-0.084433	-0.899578
15610		5.469969	-0.333290	8.013404	-0.001770	-0.004467	0.004733	-0.686279	0.343506	-0.283447	0.320550	-0.284424	-0.084414	-0.899569
15611		5.499869	-0.323307	8.004286	-0.002115	-0.002090	0.002004	-0.679199	0.351807	-0.279053	0.320445	-0.284428	-0.084382	-0.899608
15612		5.489820	-0.334330	8.032847	-0.000750	-0.002369	0.004791	-0.673096	0.345703	-0.289795	0.320461	-0.284469	-0.084321	-0.899595
15613		5.474218	-0.329031	8.018966	-0.001077	-0.002054	0.003061	-0.681396	0.342773	-0.287109	0.320533	-0.284390	-0.084318	-0.899595
15614		5.484146	-0.329218	8.028700	0.000363	-0.003417	0.002708	-0.683838	0.343994	-0.288086	0.320497	-0.284357	-0.084332	-0.899617
15615		5.487584	-0.323440	8.034880	-0.001826	-0.003401	0.006834	-0.682617	0.344727	-0.284180	0.320497	-0.284339	-0.084305	-0.899625
15616		5.489008	-0.343875	8.024714	-0.001095	-0.001016	0.003082	-0.680176	0.356445	-0.290527	0.320447	-0.284317	-0.084274	-0.899653
15617		5.459844	-0.345606	8.023565	-0.000787	-0.000293	0.004834	-0.682129	0.353760	-0.295410	0.320567	-0.284254	-0.084231	-0.899634
15618		5.472592	-0.319656	8.020526	0.000053	-0.005166	0.001976	-0.677490	0.346680	-0.288330	0.320647	-0.284202	-0.084250	-0.899621
15619		5.473602	-0.330227	8.029510	-0.004193	-0.005235	0.002952	-0.678955	0.349609	-0.284180	0.320657	-0.284200	-0.084213	-0.899621
15620		5.473631	-0.321634	8.048316	-0.001734	-0.005524	0.003676	-0.672607	0.347656	-0.280518	0.320672	-0.284233	-0.084182	-0.899608
15621		5.482173	-0.338589	8.031539	-0.003519	-0.003832	0.003338	-0.677490	0.354980	-0.289551	0.320686	-0.284265	-0.084122	-0.899599
15622		5.460377	-0.336836	8.023635	-0.000312	-0.004823	0.002325	-0.679199	0.346924	-0.285156	0.320776	-0.284247	-0.084116	-0.899572
15623		5.477208	-0.313741	8.007515	0.000017	-0.003089	0.002018	-0.683105	0.343506	-0.276855	0.320762	-0.284232	-0.084111	-0.899583
15624		5.478252	-0.343665	8.035893	-0.000295	-0.007914	0.004344	-0.676025	0.340576	-0.287842	0.320665	-0.284342	-0.084094	-0.899584
15625		5.492852	-0.327514	8.012705	-0.001369	-0.005870	0.003330	-0.684326	0.346680	-0.282227	0.320648	-0.284323	-0.084103	-0.899595
15626		5.486300	-0.321924	8.037781	0.001073	-0.005121	0.004074	-0.685059	0.345459	-0.285889	0.320602	-0.284361	-0.084099	-0.899600
15627		5.474632	-0.329244	8.020631	-0.001440	-0.000688	0.002393	-0.687256	0.342285	-0.288330	0.320540	-0.284329	-0.084069	-0.899635
15628		5.471234	-0.336470	8.042951	0.000709	-0.003752	0.003403	-0.679688	0.354736	-0.286133	0.320471	-0.284303	-0.084085	-0.899666
15629		5.485893	-0.329707	8.000842	-0.000401	-0.000654	0.003449	-0.679443	0.340820	-0.280762	0.320532	-0.284272	-0.084043	-0.899658
15630		5.484980	-0.330410	8.030035	0.000638	-0.000620	0.004504	-0.677002	0.354004	-0.288818	0.320476	-0.284251	-0.084024	-0.899687
15631		5.495413	-0.340609	8.020516	-0.002205	0.000028	0.005171	-0.677734	0.347900	-0.285156	0.320582	-0.284194	-0.083966	-0.899673
15632		5.471556	-0.329345	8.032918	-0.000800	0.001769	0.003838	-0.673096	0.354980	-0.285400	0.320606	-0.284128	-0.083923	-0.899689
15633		5.439278	-0.357125	8.044763	-0.000747	-0.000324	0.002757	-0.680908	0.344238	-0.279785	0.320703	-0.284087	-0.083882	-0.899671
15634		5.481549	-0.329619	8.042602	0.003292	-0.007216	-0.000096	-0.677979	0.353271	-0.292480	0.320602	-0.284143	-0.083923	-0.899685
15635		5.485386	-0.303086	8.029167	0.000727	-0.002741	0.001344	-0.676025	0.343506	-0.292480	0.320679	-0.284076	-0.083936	-0.899678
15636		5.466318	-0.304290	8.037708	-0.002099	-0.005184	0.004031	-0.684082	0.348389	-0.286621	0.320715	-0.284029	-0.083939	-0.899680
15637		5.484472	-0.321148	8.030852	-0.002811	-0.006562	0.005729	-0.677979	0.341553	-0.287109	0.320709	-0.284073	-0.083900	-0.899672
15638		5.470498	-0.345484	8.016370	-0.001406	-0.004821	0.004395	-0.676025	0.351807	-0.282471	0.320690	-0.284059	-0.083892	-0.899684
15639		5.476219	-0.313513	8.038795	-0.000296	-0.005868	0.002310	-0.678955	0.353271	-0.287598	0.320715	-0.284101	-0.083877	-0.899663
15640		5.480131	-0.307439	8.044684	-0.001024	-0.005180	0.003007	-0.683838	0.346436	-0.281494	0.320766	-0.284109	-0.083860	-0.899644
15641		5.481969	-0.327684	8.034191	-0.002462	-0.003816	0.003361	-0.677979	0.341797	-0.284424	0.320695	-0.284150	-0.083811	-0.899660
15642		5.470532	-0.325306	8.007169	0.000379	-0.004465	0.002694	-0.669434	0.358398	-0.288574	0.320650	-0.284143	-0.083820	-0.899678
15643		5.490116	-0.335090	8.036530	-0.001059	-0.003101	0.003048	-0.687012	0.343262	-0.288818	0.320820	-0.284109	-0.083797	-0.899630
15644		5.481297	-0.326356	8.016291	-0.003172	-0.003141	0.003019	-0.671875	0.347656	-0.288818	0.320736	-0.284093	-0.083764	-0.899668
15645		5.471624	-0.337289	8.044661	0.000379	-0.004466	0.002695	-0.680664	0.340332	-0.284180	0.320805	-0.284052	-0.083781	-0.899655
15646		5.473577	-0.337421	8.014695	-0.000643	-0.005539	0.001620	-0.683350	0.355469	-0.279053	0.320704	-0.284066	-0.083783	-0.899686
15647		5.451195	-0.325542	8.026178	0.000759	-0.006879	0.003348	-0.681885	0.347900	-0.284912	0.320699	-0.284162	-0.083760	-0.899660
15648		5.484965	-0.328408	8.042333	-0.002343	-0.010073	0.002206	-0.676758	0.354004	-0.278564	0.320653	-0.284245	-0.083750	-0.899651
15649		5.478123	-0.339024	8.011521	-0.001701	-0.006588	0.002629	-0.688232	0.350342	-0.289307	0.320664	-0.284331	-0.083707	-0.899624
15650		5.494452	-0.336083	8.043740	-0.000314	-0.005860	0.003355	-0.679199	0.349121	-0.286865	0.320641	-0.284344	-0.083704	-0.899629
15651		5.485931	-0.317298	8.013603	-0.001751	-0.003468	0.002688	-0.674072	0.351562	-0.292480	0.320649	-0.284331	-0.083680	-0.899632
15652		5.473515	-0.325102	8.025579	-0.001405	-0.004828	0.004402	-0.667480	0.348389	-0.283691	0.320761	-0.284287	-0.083675	-0.899606
15653		5.477804	-0.338638	8.021973	-0.000381	-0.000671	0.002412	-0.674561	0.348145	-0.281738	0.320834	-0.284234	-0.083658	-0.899599
15654		5.461288	-0.323542	8.027709	-0.002098	-0.004165	0.003019	-0.670654	0.350586	-0.285645	0.320842	-0.284256	-0.083623	-0.899592
15655		5.474328	-0.337326	8.063283	-0.001438	-0.003776	0.005464	-0.679443	0.351074	-0.281738	0.320948	-0.284242	-0.083596	-0.899561
15656		5.479961	-0.340901	8.020405	-0.000298	-0.005876	0.002316	-0.677734	0.352051	-0.282471	0.320944	-0.284290	-0.083584	-0.899549
15657		5.470885	-0.332178	8.029001	-0.002065	-0.007276	0.004004	-0.681396	0.356934	-0.285889	0.320974	-0.284355	-0.083554	-0.899520
15658		5.462794	-0.342966	8.027678	-0.000645	-0.006573	0.002647	-0.679443	0.351318	-0.287109	0.321024	-0.284397	-0.083543	-0.899490
15659		5.489919	-0.329761	8.030701	-0.001653	-0.009717	0.002577	-0.678711	0.349609	-0.292480	0.321039	-0.284456	-0.083545	-0.899466
15660		5.478424	-0.317866	8.022662	-0.001702	-0.007623	0.003657	-0.687256	0.343994	-0.282715	0.321081	-0.284450	-0.083550	-0.899452
15661		5.490189	-0.328064	8.012151	-0.002742	-0.006627	0.001581	-0.683350	0.348145	-0.284668	0.320960	-0.284509	-0.083525	-0.899479
15662		5.484857	-0.342081	8.027243	-0.001008	-0.006231	0.002998	-0.672363	0.347656	-0.285889	0.320927	-0.284543	-0.083515	-0.899481
15663		5.479555	-0.345893	8.032629	0.000791	-0.006914	0.001272	-0.677979	0.351807	-0.289062	0.320951	-0.284545	-0.083545	-0.899469
15664		5.483680	-0.329910	8.028687	-0.002412	-0.005919	0.002294	-0.693848	0.349121	-0.289795	0.320987	-0.284547	-0.083530	-0.899457
15665		5.455793	-0.341034	8.036544	0.000807	-0.007957	0.001254	-0.684570	0.348877	-0.293457	0.320906	-0.284578	-0.083559	-0.899474
15666		5.486504	-0.330776	8.026721	-0.002758	-0.006617	0.002626	-0.676514	0.345215	-0.285156	0.320897	-0.284568	-0.083552	-0.899481
15667		5.481127	-0.325550	8.022427	-0.003500	-0.005917	0.004367	-0.677002	0.342285	-0.289062	0.320894	-0.284587	-0.083517	-0.899479
15668		5.479254	-0.343008	8.024768	-0.002097	-0.004171	0.003026	-0.684814	0.346680	-0.285645	0.320872	-0.284549	-0.083507	-0.899499
15669		5.466550	-0.350634	8.036991	-0.000031	-0.001007	0.003107	-0.675537	0.348145	-0.288574	0.320833	-0.284514	-0.083489	-0.899526
15670		5.463024	-0.328134	8.030369	0.000363	-0.001375	0.000674	-0.681641	0.355225	-0.279541	0.320851	-0.284444	-0.083498	-0.899541
15671		5.479609	-0.334272	8.043477	0.000742	-0.003792	0.001330	-0.685303	0.347900	-0.289551	0.320853	-0.284485	-0.083483	-0.899529
15672		5.471159	-0.334831	8.032718	-0.000661	-0.006569	0.003695	-0.683838	0.345947	-0.290527	0.320835	-0.284493	-0.083486	-0.899532
15673		5.497854	-0.321828	8.035995	-0.003122	-0.005245	0.001956	-0.675293	0.357178	-0.284668	0.320790	-0.284481	-0.083467	-0.899554
15674		5.483324	-0.335990	8.012162	-0.001434	-0.001724	0.003426	-0.680908	0.349121	-0.291748	0.320883	-0.284467	-0.083428	-0.899529
15675		5.466711	-0.330842	8.027748	-0.001434	-0.001724	0.003426	-0.681641	0.351807	-0.287598	0.320908	-0.284404	-0.083411	-0.899542
15676		5.472913	-0.328433	8.050390	-0.002128	-0.003119	0.004089	-0.675049	0.348877	-0.286377	0.320936	-0.284393	-0.083376	-0.899538
15677		5.468476	-0.342201	8.007471	-0.001434	-0.001725	0.003427	-0.680420	0.350586	-0.286865	0.320972	-0.284353	-0.083350	-0.899540
15678		5.467229	-0.323482	8.046307	0.000017	-0.003104	0.002029	-0.664551	0.347412	-0.286377	0.320979	-0.284332	-0.083347	-0.899545
15679		5.465298	-0.320660	8.029302	-0.000661	-0.006572	0.003698	-0.680664	0.347168	-0.281982	0.321067	-0.284323	-0.083357	-0.899515
15680		5.482816	-0.327289	8.041745	-0.000268	-0.007972	0.002289	-0.664795	0.348145	-0.292480	0.321025	-0.284384	-0.083360	-0.899511
15681		5.475486	-0.337540	8.011208	-0.001009	-0.005209	0.001982	-0.677002	0.353271	-0.288086	0.321121	-0.284322	-0.083382	-0.899494
15682		5.465276	-0.318904	8.039677	0.000380	-0.004481	0.002705	-0.687012	0.353516	-0.282227	0.321186	-0.284306	-0.083392	-0.899475
15683		5.469897	-0.342138	8.045506	-0.001734	-0.004520	0.002682	-0.675293	0.350342	-0.293701	0.321172	-0.284354	-0.083359	-0.899468
15684		5.464403	-0.326862	8.031614	-0.002427	-0.006947	0.004370	-0.680908	0.350342	-0.290283	0.321238	-0.284336	-0.083354	-0.899450
15685		5.488438	-0.320398	8.028083	-0.000284	-0.006932	0.002309	-0.683105	0.342773	-0.291016	0.321248	-0.284339	-0.083370	-0.899445
15686		5.483807	-0.333975	8.014004	-0.001719	-0.004532	0.001641	-0.673828	0.346924	-0.286621	0.321168	-0.284306	-0.083364	-0.899484
15687		5.474398	-0.334942	8.032626	-0.000677	-0.004502	0.002695	-0.686279	0.352783	-0.294678	0.321184	-0.284288	-0.083362	-0.899484
15688		5.475138	-0.335510	8.032098	-0.001055	-0.003115	0.003063	-0.679199	0.358643	-0.283936	0.321209	-0.284239	-0.083357	-0.899491
15689		5.491942	-0.322441	8.025605	0.000380	-0.004484	0.002707	-0.684814	0.351318	-0.283447	0.321298	-0.284262	-0.083358	-0.899452
15690		5.473457	-0.323359	8.033932	0.000441	-0.008657	0.002637	-0.677490	0.349854	-0.284180	0.321287	-0.284332	-0.083373	-0.899433
15691		5.458818	-0.327485	8.029212	-0.001357	-0.005911	0.002319	-0.682861	0.356689	-0.287109	0.321293	-0.284358	-0.083364	-0.899423
15692		5.479963	-0.336976	8.028746	0.000454	-0.007637	0.000571	-0.684814	0.349121	-0.290283	0.321325	-0.284396	-0.083390	-0.899397
15693		5.487320	-0.314261	8.031234	-0.000964	-0.008344	0.001936	-0.681396	0.341309	-0.290039	0.321296	-0.284421	-0.083404	-0.899398
15694		5.460167	-0.335038	8.019645	-0.000328	-0.004840	0.003391	-0.677979	0.360840	-0.287354	0.321236	-0.284389	-0.083407	-0.899430
15695		5.470463	-0.325374	8.019400	-0.000664	-0.003484	0.000631	-0.681396	0.345703	-0.281006	0.321328	-0.284382	-0.083407	-0.899399
15696		5.464433	-0.319433	8.044380	0.000818	-0.010050	0.002274	-0.679932	0.350586	-0.295654	0.321278	-0.284464	-0.083432	-0.899389
15697		5.472795	-0.306504	8.027129	-0.002369	-0.008031	0.001236	-0.676270	0.347168	-0.290039	0.321281	-0.284452	-0.083443	-0.899390
15698		5.462264	-0.343338	8.038310	-0.000253	-0.010061	0.003308	-0.679443	0.347412	-0.288086	0.321290	-0.284480	-0.083470	-0.899376
15699		5.470863	-0.320698	8.011172	-0.001629	-0.010800	0.001547	-0.676758	0.353760	-0.284180	0.321259	-0.284535	-0.083487	-0.899368
15700		5.505224	-0.314263	8.017027	-0.004465	-0.011182	0.003255	-0.677979	0.348145	-0.293945	0.321301	-0.284637	-0.083463	-0.899323
15701		5.504347	-0.331860	8.018663	-0.002394	-0.009048	0.004352	-0.684814	0.349609	-0.287354	0.321321	-0.284642	-0.083465	-0.899314
15702		5.479310	-0.327031	8.023614	-0.001732	-0.004529	0.002693	-0.677246	0.354980	-0.288086	0.321303	-0.284643	-0.083448	-0.899321
15703		5.489853	-0.327384	8.032897	-0.000299	-0.005900	0.002336	-0.684814	0.354736	-0.284424	0.321370	-0.284646	-0.083461	-0.899295
15704		5.490909	-0.317835	8.022449	0.001092	-0.005172	0.003055	-0.683105	0.347900	-0.285400	0.321410	-0.284669	-0.083475	-0.899273
15705		5.479356	-0.344492	8.024629	0.000018	-0.003113	0.002036	-0.666748	0.347168	-0.285889	0.321383	-0.284652	-0.083472	-0.899288
15706		5.464252	-0.338597	8.010548	0.000077	-0.007291	0.001971	-0.679443	0.352295	-0.280518	0.321415	-0.284653	-0.083496	-0.899274
15707		5.490435	-0.325363	8.042916	-0.000286	-0.005912	0.001295	-0.676758	0.344727	-0.281250	0.321427	-0.284697	-0.083500	-0.899255
15708		5.479277	-0.322435	8.015683	0.000090	-0.007302	0.000929	-0.682129	0.346436	-0.290283	0.321376	-0.284735	-0.083515	-0.899260
15709		5.483815	-0.316304	8.021192	-0.001324	-0.009045	0.003325	-0.679199	0.351807	-0.284912	0.321348	-0.284760	-0.083523	-0.899262
15710		5.499387	-0.339318	8.007183	-0.002037	-0.007331	0.001956	-0.678467	0.343994	-0.287598	0.321361	-0.284801	-0.083518	-0.899244
15711		5.490117	-0.330618	8.016076	-0.001412	-0.002778	0.003423	-0.678711	0.350830	-0.288330	0.321330	-0.284761	-0.083496	-0.899270
15712		5.480336	-0.331368	8.035059	0.000725	-0.001726	0.000327	-0.678955	0.342773	-0.288818	0.321338	-0.284705	-0.083511	-0.899284
15713		5.494044	-0.314657	8.012284	0.000382	-0.004496	0.002715	-0.677246	0.346680	-0.286865	0.321292	-0.284669	-0.083520	-0.899311
15714		5.482645	-0.331536	8.004643	0.000746	-0.005877	0.003393	-0.676758	0.345947	-0.281982	0.321297	-0.284663	-0.083537	-0.899309
15715		5.474112	-0.351461	8.013405	0.001449	-0.003453	0.000654	-0.680908	0.347168	-0.282715	0.321264	-0.284650	-0.083553	-0.899324
15716		5.479747	-0.318788	8.036207	0.001074	-0.002062	0.001020	-0.685791	0.346191	-0.279785	0.321229	-0.284626	-0.083557	-0.899343
15717		5.470895	-0.319236	8.025742	-0.001370	-0.004879	0.002350	-0.686768	0.334229	-0.287842	0.321159	-0.284669	-0.083530	-0.899357
15718		5.484454	-0.313395	8.041579	-0.003133	-0.006287	0.004054	-0.686523	0.334961	-0.286377	0.321003	-0.284673	-0.083492	-0.899415
15719		5.476817	-0.324325	8.011135	-0.002437	-0.005924	0.004413	-0.681152	0.352783	-0.282715	0.320862	-0.284680	-0.083457	-0.899466
15720		5.490005	-0.328055	8.036955	0.000002	-0.001036	0.001028	-0.685547	0.339600	-0.286377	0.320866	-0.284659	-0.083443	-0.899473
15721		5.481082	-0.328548	8.026537	-0.001009	-0.005226	0.002001	-0.688232	0.347168	-0.288818	0.320753	-0.284655	-0.083433	-0.899515
15722		5.479440	-0.345509	8.028722	-0.002038	-0.007336	0.001962	-0.686035	0.345459	-0.286621	0.320687	-0.284682	-0.083423	-0.899531
15723		5.467641	-0.333243	8.021031	-0.000273	-0.006964	0.001286	-0.672119	0.338623	-0.282227	0.320614	-0.284703	-0.083432	-0.899550
15724		5.497613	-0.303653	8.020873	-0.001339	-0.008009	0.003350	-0.685547	0.351807	-0.284180	0.320578	-0.284733	-0.083432	-0.899553
15725		5.490303	-0.343707	8.019371	-0.001018	-0.006255	0.004074	-0.681885	0.353271	-0.284180	0.320573	-0.284774	-0.083413	-0.899544
15726		5.474160	-0.309060	8.034556	0.000078	-0.008339	0.003009	-0.675781	0.347412	-0.284180	0.320591	-0.284829	-0.083422	-0.899519
15727		5.495387	-0.318633	8.033905	0.000062	-0.006257	0.001996	-0.680908	0.346436	-0.282471	0.320597	-0.284840	-0.083436	-0.899512
15728		5.483749	-0.326040	8.045564	-0.000629	-0.008695	0.003696	-0.680176	0.340332	-0.292480	0.320572	-0.284899	-0.083435	-0.899502
15729		5.485741	-0.326249	8.015319	0.000048	-0.005212	0.002012	-0.681396	0.349365	-0.287842	0.320536	-0.284848	-0.083463	-0.899529
15730		5.477560	-0.336264	8.014135	0.000819	-0.008015	-0.000805	-0.677979	0.342285	-0.285645	0.320505	-0.284865	-0.083505	-0.899531
15731		5.488641	-0.316497	8.003603	-0.000967	-0.008370	0.001962	-0.683594	0.340576	-0.277344	0.320462	-0.284890	-0.083518	-0.899537
15732		5.505706	-0.313727	8.035419	-0.002049	-0.007333	0.003014	-0.677002	0.349365	-0.286377	0.320344	-0.284961	-0.083479	-0.899560
15733		5.494577	-0.341044	8.037301	-0.001738	-0.005568	0.004781	-0.679688	0.347412	-0.292725	0.320396	-0.284967	-0.083466	-0.899541
15734		5.498287	-0.315578	8.023921	-0.000687	-0.003476	0.002730	-0.685791	0.348633	-0.285889	0.320427	-0.284908	-0.083479	-0.899547
15735		5.482788	-0.309898	8.010140	-0.000687	-0.003476	0.002730	-0.686279	0.347900	-0.290527	0.320395	-0.284899	-0.083461	-0.899563
15736		5.490292	-0.336534	8.032296	-0.000684	-0.004514	0.003760	-0.680664	0.347168	-0.283447	0.320385	-0.284878	-0.083457	-0.899574
15737		5.474143	-0.321430	8.038117	-0.001758	-0.002448	0.002739	-0.678223	0.347412	-0.286133	0.320363	-0.284865	-0.083424	-0.899589
15738		5.484964	-0.331240	8.028040	0.000741	-0.003814	0.001343	-0.677002	0.347656	-0.287109	0.320363	-0.284837	-0.083442	-0.899596
15739		5.492656	-0.327955	8.020899	-0.000622	-0.007674	0.001630	-0.683594	0.349854	-0.281982	0.320372	-0.284853	-0.083463	-0.899586
15740		5.477279	-0.322380	8.035942	0.000051	-0.006255	0.003046	-0.678223	0.349365	-0.276855	0.320349	-0.284893	-0.083456	-0.899582
15741		5.498190	-0.322193	8.025728	-0.000299	-0.005918	0.002353	-0.683838	0.342285	-0.284668	0.320328	-0.284947	-0.083439	-0.899574
15742		5.482508	-0.307015	8.031250	-0.001727	-0.005581	0.003742	-0.679443	0.349121	-0.287109	0.320267	-0.284960	-0.083415	-0.899594
15743		5.491460	-0.343258	8.004319	-0.002427	-0.004907	0.002356	-0.679688	0.345703	-0.284912	0.320275	-0.284958	-0.083399	-0.899593
15744		5.488177	-0.330871	8.036262	0.002508	-0.004482	0.001693	-0.684814	0.343994	-0.284424	0.320259	-0.284937	-0.083432	-0.899602
15745		5.478677	-0.301843	8.025978	-0.001373	-0.003852	0.001333	-0.682617	0.347656	-0.287354	0.320177	-0.284931	-0.083410	-0.899635
15746		5.496300	-0.328094	8.028797	-0.001393	-0.003835	0.003421	-0.680908	0.348145	-0.288818	0.320172	-0.284916	-0.083393	-0.899643
15747		5.478605	-0.348373	7.998424	0.000034	-0.004172	0.002032	-0.677734	0.352783	-0.282471	0.320178	-0.284887	-0.083406	-0.899649
15748		5.481281	-0.313162	8.033874	-0.001347	-0.005947	0.001306	-0.682129	0.346191	-0.281250	0.320192	-0.284919	-0.083399	-0.899635
15749		5.456786	-0.317494	8.019497	-0.001006	-0.006277	0.003044	-0.683105	0.346191	-0.286865	0.320148	-0.284958	-0.083380	-0.899640
15750		5.507108	-0.326694	8.019429	-0.001703	-0.006641	0.002688	-0.680176	0.350830	-0.286865	0.320116	-0.284975	-0.083371	-0.899647
15751		5.478600	-0.318675	8.037522	-0.002060	-0.007335	0.004070	-0.677734	0.345215	-0.290039	0.320147	-0.285005	-0.083360	-0.899627
15752		5.467344	-0.336011	8.029769	-0.001020	-0.005231	0.003059	-0.677979	0.345215	-0.287109	0.320169	-0.284977	-0.083372	-0.899627
15753		5.500497	-0.319324	8.026561	-0.000654	-0.004547	0.000634	-0.683594	0.349854	-0.282715	0.320149	-0.284953	-0.083383	-0.899641
15754		5.488308	-0.317127	8.028920	-0.003143	-0.005259	0.004094	-0.680420	0.351074	-0.284424	0.320132	-0.284989	-0.083334	-0.899640
15755		5.476542	-0.334573	8.050459	0.000083	-0.007327	0.000950	-0.677734	0.340820	-0.281738	0.320125	-0.285021	-0.083352	-0.899631
15756		5.494467	-0.321134	8.014118	-0.000997	-0.006289	0.002003	-0.678955	0.341553	-0.280029	0.320067	-0.285040	-0.083347	-0.899646
15757		5.505194	-0.321529	8.023252	-0.001019	-0.005233	0.003062	-0.688477	0.347656	-0.289307	0.320011	-0.285059	-0.083325	-0.899662
15758		5.477007	-0.322754	8.021972	-0.000300	-0.005926	0.002360	-0.683105	0.339600	-0.291504	0.319966	-0.285059	-0.083328	-0.899678
15759		5.497477	-0.322651	8.040954	0.000779	-0.006966	0.001308	-0.678467	0.345947	-0.278809	0.319910	-0.285032	-0.083368	-0.899702
15760		5.492849	-0.326078	8.017055	0.000064	-0.007314	0.003042	-0.685791	0.341309	-0.283447	0.319883	-0.285083	-0.083364	-0.899696
15761		5.490459	-0.313612	8.019499	-0.001010	-0.005243	0.002019	-0.684570	0.344238	-0.291748	0.319783	-0.285094	-0.083344	-0.899730
15762		5.488948	-0.340194	8.031327	-0.000265	-0.008034	0.001292	-0.675049	0.348389	-0.287109	0.319747	-0.285091	-0.083376	-0.899740
15763		5.489908	-0.311229	8.030414	-0.001660	-0.008762	0.000582	-0.679199	0.349121	-0.281006	0.319771	-0.285118	-0.083403	-0.899721
15764		5.475893	-0.324941	8.006163	-0.001343	-0.006996	0.002347	-0.683838	0.347412	-0.281250	0.319758	-0.285165	-0.083390	-0.899712
15765		5.486702	-0.325398	8.015237	-0.001018	-0.005237	0.003066	-0.675537	0.344727	-0.284668	0.319713	-0.285193	-0.083363	-0.899722
15766		5.497466	-0.315947	8.014606	-0.000984	-0.007344	0.001997	-0.679443	0.348877	-0.283691	0.319718	-0.285209	-0.083378	-0.899713
15767		5.499585	-0.345912	8.013360	-0.001360	-0.006982	0.004438	-0.673584	0.349854	-0.287598	0.319741	-0.285243	-0.083367	-0.899696
15768		5.497008	-0.323670	8.006200	0.000394	-0.004527	0.001688	-0.680420	0.342041	-0.292480	0.319812	-0.285212	-0.083401	-0.899677
15769		5.500756	-0.317358	8.012292	0.000022	-0.003132	0.002052	-0.684570	0.343506	-0.286377	0.319807	-0.285140	-0.083423	-0.899699
15770		5.504837	-0.320775	7.998903	-0.001738	-0.002472	0.000661	-0.673096	0.345215	-0.291748	0.319729	-0.285107	-0.083399	-0.899740
15771		5.482611	-0.328737	8.030409	-0.000662	-0.006620	0.004795	-0.678711	0.347656	-0.287354	0.319824	-0.285079	-0.083432	-0.899712
15772		5.477196	-0.322929	8.026269	-0.000651	-0.005595	0.001673	-0.680664	0.348145	-0.292236	0.319834	-0.285071	-0.083446	-0.899709
15773		5.478441	-0.323299	8.025404	-0.000287	-0.006984	0.002355	-0.671143	0.349609	-0.285645	0.319864	-0.285058	-0.083478	-0.899700
15774		5.496039	-0.320233	8.027915	-0.001691	-0.007704	0.002691	-0.679688	0.349121	-0.282471	0.319943	-0.285079	-0.083497	-0.899664
15775		5.497701	-0.320977	7.997734	-0.003499	-0.004922	0.004461	-0.682129	0.344727	-0.291504	0.319958	-0.285105	-0.083451	-0.899654
15776		5.495152	-0.338558	8.029511	-0.002084	-0.003176	0.001002	-0.684570	0.352539	-0.281738	0.319925	-0.285055	-0.083444	-0.899683
15777		5.489305	-0.332560	8.025677	-0.000656	-0.004555	0.000642	-0.685791	0.344727	-0.283936	0.319898	-0.285077	-0.083433	-0.899686
15778		5.487378	-0.329723	8.008563	-0.001000	-0.007336	0.004093	-0.681396	0.343506	-0.285156	0.319844	-0.285115	-0.083414	-0.899695
15779		5.484982	-0.307532	8.001295	-0.000300	-0.005937	0.002370	-0.690186	0.338867	-0.285400	0.319801	-0.285119	-0.083416	-0.899709
15780		5.483399	-0.334027	8.013174	0.000418	-0.006631	0.001667	-0.678955	0.345947	-0.287354	0.319658	-0.285131	-0.083410	-0.899757
15781		5.497183	-0.327562	8.028897	-0.000305	-0.004896	0.001337	-0.680420	0.348389	-0.287109	0.319655	-0.285111	-0.083425	-0.899763
15782		5.488519	-0.318305	8.008576	-0.000314	-0.005924	0.004461	-0.675049	0.347900	-0.289795	0.319691	-0.285113	-0.083431	-0.899749
15783		5.496189	-0.325509	8.011106	-0.002433	-0.004916	0.003424	-0.678223	0.344727	-0.285645	0.319759	-0.285089	-0.083433	-0.899732
15784		5.487400	-0.336322	8.039377	0.000418	-0.006633	0.001669	-0.683594	0.354248	-0.281982	0.319746	-0.285091	-0.083457	-0.899734
15785		5.494853	-0.323451	8.022585	-0.001388	-0.003850	0.003439	-0.684326	0.343262	-0.282715	0.319768	-0.285111	-0.083429	-0.899722
15786		5.498629	-0.317641	8.028650	-0.002431	-0.003881	0.001346	-0.682373	0.344238	-0.291992	0.319676	-0.285114	-0.083388	-0.899757
15787		5.470272	-0.318973	8.027603	-0.000665	-0.005587	0.003770	-0.683105	0.341064	-0.284180	0.319680	-0.285086	-0.083398	-0.899764
15788		5.497600	-0.315786	8.010872	-0.002069	-0.006309	0.004109	-0.680420	0.352051	-0.284912	0.319617	-0.285106	-0.083366	-0.899783
15789		5.494818	-0.313751	8.023351	-0.003179	-0.001081	0.003119	-0.674072	0.350586	-0.280518	0.319649	-0.285079	-0.083321	-0.899784
15790		5.486235	-0.344267	8.012877	-0.002112	-0.003151	0.005189	-0.680420	0.348389	-0.279785	0.319723	-0.285084	-0.083289	-0.899759
15791		5.476858	-0.335890	8.022064	-0.001741	-0.004549	0.004827	-0.678467	0.345215	-0.286133	0.319726	-0.285111	-0.083250	-0.899753
15792		5.491050	-0.329779	8.008443	-0.000994	-0.007351	0.003055	-0.677734	0.348389	-0.287354	0.319726	-0.285128	-0.083258	-0.899748
15793		5.482278	-0.330775	8.026983	0.000033	-0.005227	0.004126	-0.674316	0.348633	-0.290283	0.319779	-0.285115	-0.083272	-0.899732
15794		5.516051	-0.323830	8.003888	-0.001351	-0.005968	0.001328	-0.674316	0.354492	-0.290283	0.319833	-0.285094	-0.083299	-0.899716
15795		5.504131	-0.331116	8.015909	0.000046	-0.005241	0.002035	-0.683350	0.346191	-0.289062	0.319946	-0.285069	-0.083343	-0.899680
15796		5.488759	-0.335138	8.011868	-0.001393	-0.002810	0.002408	-0.679688	0.345947	-0.283691	0.319922	-0.285030	-0.083327	-0.899702
15797		5.489546	-0.325790	8.001567	0.000051	-0.006286	0.003071	-0.676270	0.351318	-0.287109	0.319911	-0.285046	-0.083331	-0.899701
15798		5.484168	-0.329697	8.007172	-0.001011	-0.005259	0.002035	-0.675537	0.343506	-0.287109	0.319968	-0.285039	-0.083347	-0.899682
15799		5.507985	-0.332926	8.013187	-0.001005	-0.005266	0.000990	-0.679443	0.349854	-0.286865	0.319948	-0.285020	-0.083356	-0.899694
15800		5.479599	-0.334144	8.012205	-0.002438	-0.003878	0.002398	-0.682861	0.349365	-0.293213	0.319970	-0.285007	-0.083340	-0.899691
15801		5.496757	-0.321604	8.005217	-0.002057	-0.007367	0.004105	-0.681641	0.345215	-0.291260	0.320001	-0.285009	-0.083343	-0.899679
15802		5.491232	-0.335685	8.020656	-0.000353	-0.001737	0.003468	-0.684326	0.337891	-0.283447	0.320000	-0.284942	-0.083337	-0.899701
15803		5.488301	-0.333207	8.033279	-0.001381	-0.003863	0.002400	-0.682373	0.347656	-0.281006	0.319872	-0.284933	-0.083295	-0.899754
15804		5.495632	-0.340168	8.036030	-0.000682	-0.003499	0.002753	-0.677002	0.344727	-0.289307	0.319844	-0.284938	-0.083271	-0.899764
15805		5.486555	-0.330863	8.016001	-0.000676	-0.003506	0.001707	-0.687988	0.351318	-0.278076	0.319846	-0.284893	-0.083279	-0.899777
15806		5.493360	-0.318397	8.028705	-0.001387	-0.003857	0.003447	-0.681641	0.347168	-0.282959	0.319807	-0.284931	-0.083232	-0.899783
15807		5.494456	-0.328763	8.008584	-0.002097	-0.003170	0.003105	-0.677490	0.345703	-0.281494	0.319786	-0.284928	-0.083195	-0.899795
15808		5.501465	-0.326588	8.030873	-0.002086	-0.005262	0.005176	-0.687256	0.348877	-0.283936	0.319798	-0.284950	-0.083163	-0.899787
15809		5.502547	-0.337205	8.010745	-0.002466	-0.001772	0.003469	-0.676270	0.347168	-0.281250	0.319759	-0.284938	-0.083108	-0.899810
15810		5.476397	-0.332247	8.046038	0.000364	-0.002433	0.002765	-0.684570	0.348389	-0.289307	0.319775	-0.284917	-0.083104	-0.899811
15811		5.480472	-0.315956	8.013107	-0.001354	-0.005974	0.001334	-0.680420	0.343506	-0.283447	0.319745	-0.284917	-0.083105	-0.899822
15812		5.491343	-0.316356	8.022127	0.000045	-0.006288	0.004122	-0.687988	0.341064	-0.293701	0.319720	-0.284932	-0.083100	-0.899826
15813		5.482882	-0.326903	8.021155	-0.001370	-0.004917	0.002392	-0.682373	0.349365	-0.282715	0.319638	-0.284897	-0.083089	-0.899868
15814		5.490247	-0.323945	8.014136	-0.000324	-0.003849	0.002403	-0.679443	0.350098	-0.281738	0.319624	-0.284898	-0.083077	-0.899873
15815		5.500593	-0.324358	8.023512	-0.001040	-0.003156	0.003108	-0.685303	0.347656	-0.294189	0.319640	-0.284897	-0.083056	-0.899870
15816		5.475032	-0.319220	8.029337	-0.001392	-0.003855	0.004497	-0.683594	0.348389	-0.294678	0.319656	-0.284855	-0.083048	-0.899878
15817		5.482776	-0.336013	8.012423	-0.001387	-0.003861	0.003450	-0.679932	0.347412	-0.283447	0.319679	-0.284809	-0.083048	-0.899884
15818		5.486800	-0.330108	8.018344	-0.001355	-0.005976	0.001337	-0.686523	0.355713	-0.289551	0.319653	-0.284829	-0.083042	-0.899888
15819		5.481370	-0.324225	8.014263	-0.001360	-0.005972	0.002384	-0.680420	0.344971	-0.288574	0.319677	-0.284843	-0.083043	-0.899875
15820		5.498867	-0.341017	8.036255	-0.001018	-0.005262	0.003089	-0.678223	0.341309	-0.281982	0.319668	-0.284829	-0.083041	-0.899883
15821		5.477170	-0.338305	7.999689	0.000022	-0.003147	0.002063	-0.683838	0.342529	-0.287842	0.319618	-0.284809	-0.083030	-0.899908
15822		5.483531	-0.315904	8.032107	0.001080	-0.003131	0.002062	-0.682129	0.348633	-0.277100	0.319562	-0.284767	-0.083035	-0.899941
15823		5.500632	-0.322712	8.044634	-0.001028	-0.005253	0.005184	-0.673096	0.340332	-0.284180	0.319550	-0.284814	-0.082995	-0.899934
15824		5.485783	-0.336568	8.020882	-0.001724	-0.004579	0.001702	-0.680908	0.349854	-0.290527	0.319529	-0.284798	-0.082988	-0.899947
15825		5.476719	-0.337330	8.010582	-0.001407	-0.001759	0.003474	-0.685547	0.349854	-0.281250	0.319570	-0.284746	-0.082977	-0.899950
15826		5.486529	-0.318449	8.029959	-0.000671	-0.004558	0.002749	-0.687500	0.349121	-0.284424	0.319532	-0.284769	-0.082952	-0.899958
15827		5.493992	-0.325507	8.032595	-0.001033	-0.004207	0.004148	-0.683838	0.348145	-0.284912	0.319502	-0.284779	-0.082919	-0.899969
15828		5.488634	-0.339102	8.018825	-0.000325	-0.003854	0.002407	-0.685791	0.354736	-0.286377	0.319475	-0.284772	-0.082908	-0.899982
15829		5.492212	-0.333163	8.025060	-0.001760	-0.001417	0.002780	-0.681396	0.342773	-0.278564	0.319486	-0.284749	-0.082874	-0.899988
15830		5.482954	-0.324140	8.005151	-0.001033	-0.004208	0.004149	-0.681641	0.345215	-0.277344	0.319433	-0.284767	-0.082834	-0.900005
15831		5.490130	-0.331537	8.037107	0.000024	-0.004193	0.004149	-0.683350	0.341553	-0.285889	0.319393	-0.284790	-0.082804	-0.900015
15832		5.487508	-0.329013	8.020420	-0.002468	-0.001772	0.004524	-0.679932	0.344727	-0.286621	0.319350	-0.284756	-0.082752	-0.900045
15833		5.487966	-0.329961	8.020068	-0.001044	-0.003156	0.004160	-0.684082	0.350342	-0.285889	0.319355	-0.284728	-0.082735	-0.900054
15834		5.475650	-0.337375	8.032425	-0.000321	-0.003860	0.001361	-0.682861	0.355713	-0.286621	0.319330	-0.284720	-0.082730	-0.900066
15835		5.489721	-0.330795	8.018832	-0.000295	-0.007015	0.002379	-0.673096	0.348877	-0.292725	0.319356	-0.284750	-0.082742	-0.900046
15836		5.484437	-0.334679	8.024407	-0.001015	-0.005272	0.002048	-0.678467	0.354980	-0.286865	0.319436	-0.284715	-0.082777	-0.900026
15837		5.485461	-0.325437	8.013943	-0.001013	-0.006317	0.004133	-0.682861	0.342041	-0.288086	0.319513	-0.284734	-0.082784	-0.899992
15838		5.503042	-0.332210	7.996965	-0.001729	-0.004578	0.002754	-0.679688	0.346436	-0.291992	0.319461	-0.284718	-0.082764	-0.900017
15839		5.474207	-0.333845	8.025545	-0.000700	-0.002448	0.004867	-0.678955	0.343506	-0.287598	0.319506	-0.284661	-0.082760	-0.900019
15840		5.484689	-0.343804	8.015413	0.000369	-0.002445	0.001723	-0.681152	0.352051	-0.286621	0.319487	-0.284611	-0.082767	-0.900041
15841		5.481704	-0.331459	8.018390	-0.002100	-0.003175	0.004165	-0.682861	0.346191	-0.285645	0.319525	-0.284600	-0.082740	-0.900034
15842		5.479304	-0.358466	8.030759	-0.000349	-0.001747	0.003477	-0.679688	0.344238	-0.285400	0.319507	-0.284564	-0.082718	-0.900053
15843		5.492353	-0.322708	8.017787	0.000385	-0.004549	0.002752	-0.680664	0.347168	-0.289062	0.319488	-0.284551	-0.082722	-0.900064
15844		5.476585	-0.307345	8.023751	-0.001033	-0.004213	0.004155	-0.683350	0.346680	-0.281738	0.319507	-0.284531	-0.082714	-0.900064
15845		5.480891	-0.331009	8.029542	-0.002453	-0.002832	0.003472	-0.686035	0.351318	-0.284424	0.319466	-0.284534	-0.082662	-0.900083
15846		5.487562	-0.318513	8.013224	-0.000715	-0.000347	0.003840	-0.684082	0.348877	-0.290771	0.319457	-0.284501	-0.082622	-0.900100
15847		5.477919	-0.338926	8.022798	-0.000731	0.001756	0.002811	-0.688721	0.346924	-0.285156	0.319460	-0.284411	-0.082596	-0.900130
15848		5.484461	-0.336755	8.045455	-0.002798	-0.004585	0.005902	-0.676514	0.353516	-0.285400	0.319417	-0.284431	-0.082534	-0.900144
15849		5.469055	-0.341151	8.012305	-0.001413	-0.001757	0.005576	-0.675049	0.344482	-0.282959	0.319506	-0.284405	-0.082511	-0.900123
15850		5.475818	-0.339014	8.034812	-0.003150	-0.003199	0.002074	-0.675293	0.345459	-0.288818	0.319493	-0.284396	-0.082477	-0.900134
15851		5.482989	-0.336160	8.027895	0.001781	-0.003823	0.004503	-0.682617	0.343750	-0.284668	0.319550	-0.284353	-0.082507	-0.900124
15852		5.477193	-0.330188	8.024098	-0.000677	-0.004563	0.003804	-0.681885	0.343018	-0.291748	0.319511	-0.284353	-0.082485	-0.900140
15853		5.474679	-0.327971	8.036497	-0.001738	-0.004576	0.004855	-0.679688	0.339355	-0.279785	0.319505	-0.284326	-0.082468	-0.900152
15854		5.478956	-0.331964	8.022821	-0.001734	-0.004580	0.003807	-0.685791	0.351318	-0.286865	0.319437	-0.284341	-0.082425	-0.900176
15855		5.482881	-0.325926	8.028843	0.000734	-0.003850	0.001362	-0.679688	0.349365	-0.284912	0.319406	-0.284330	-0.082429	-0.900190
15856		5.480917	-0.342994	8.031165	-0.002779	-0.006697	0.005889	-0.680176	0.349854	-0.289307	0.319437	-0.284367	-0.082397	-0.900170
15857		5.481689	-0.334062	8.020867	-0.000692	-0.002461	0.002776	-0.683350	0.344238	-0.291504	0.319461	-0.284327	-0.082393	-0.900174
15858		5.466072	-0.348057	8.026784	-0.001749	-0.002476	0.002779	-0.684326	0.339844	-0.275146	0.319431	-0.284280	-0.082372	-0.900202
15859		5.476313	-0.338596	8.026493	0.001084	-0.004192	0.003106	-0.685303	0.345215	-0.286377	0.319318	-0.284304	-0.082339	-0.900237
15860		5.480338	-0.332491	8.032453	0.000033	-0.005259	0.004149	-0.680908	0.343018	-0.285889	0.319280	-0.284307	-0.082326	-0.900251
15861		5.481334	-0.333075	8.031749	-0.001375	-0.004932	0.002409	-0.680420	0.352295	-0.286865	0.319238	-0.284304	-0.082311	-0.900268
15862		5.475704	-0.337192	8.037571	-0.001387	-0.003876	0.003466	-0.680908	0.353760	-0.287354	0.319267	-0.284298	-0.082297	-0.900261
15863		5.486251	-0.337396	8.017608	0.000018	-0.003154	0.003119	-0.684082	0.341309	-0.287598	0.319302	-0.284279	-0.082297	-0.900255
15864		5.483362	-0.325249	8.020549	-0.002102	-0.003179	0.005223	-0.681885	0.344238	-0.284424	0.319265	-0.284257	-0.082253	-0.900279
15865		5.461055	-0.333026	8.023309	-0.000003	-0.001044	0.004186	-0.680176	0.342529	-0.286133	0.319244	-0.284216	-0.082225	-0.900302
