// Start Time: Unknown
// Update Rate: 40.0Hz
// Filter Profile: human (46.1)
// Firmware Version: 4.6.0
PacketCounter	SampleTimeFine	Acc_X	Acc_Y	Acc_Z	Gyr_X	Gyr_Y	Gyr_Z	Mag_X	Mag_Y	Mag_Z	Quat_q0	Quat_q1	Quat_q2	Quat_q3
28137		5.691614	1.248153	7.784029	0.004320	-0.003098	-0.003317	-0.663818	0.519775	-0.526611	0.520366	-0.220844	-0.225694	-0.793416
28138		5.679839	1.255819	7.800329	0.004183	-0.002721	-0.001235	-0.664307	0.516113	-0.529541	0.520358	-0.220840	-0.225757	-0.793405
28139		5.683668	1.243673	7.801833	0.004202	-0.001879	-0.002529	-0.663574	0.516357	-0.525879	0.520340	-0.220818	-0.225820	-0.793405
28140		5.685660	1.250697	7.788760	0.004713	-0.004541	-0.003362	-0.669189	0.524414	-0.529053	0.520294	-0.220832	-0.225913	-0.793404
28141		5.681330	1.259534	7.798644	0.004547	-0.002290	-0.002826	-0.663086	0.514404	-0.527588	0.520266	-0.220822	-0.225983	-0.793406
28142		5.690067	1.240231	7.789579	0.004959	-0.002891	-0.004165	-0.666992	0.515869	-0.529785	0.520227	-0.220806	-0.226063	-0.793413
28143		5.680772	1.256909	7.809970	0.006499	-0.003540	-0.003818	-0.665283	0.517334	-0.524658	0.520186	-0.220795	-0.226165	-0.793414
28144		5.698368	1.268890	7.800942	0.005623	-0.001308	-0.001395	-0.672607	0.518311	-0.527588	0.520164	-0.220779	-0.226240	-0.793411
28145		5.683740	1.243819	7.794426	0.004219	-0.001037	-0.003826	-0.670654	0.516602	-0.530029	0.520088	-0.220787	-0.226321	-0.793436
28146		5.680412	1.258644	7.792110	0.005549	-0.001653	-0.005265	-0.667480	0.530518	-0.533203	0.520019	-0.220758	-0.226412	-0.793463
28147		5.687847	1.258152	7.814309	0.004920	-0.004574	-0.001578	-0.675049	0.515869	-0.521729	0.520067	-0.220766	-0.226421	-0.793427
28148		5.674144	1.260409	7.797204	0.004544	-0.002291	-0.002829	-0.664307	0.513428	-0.535156	0.519945	-0.220791	-0.226545	-0.793464
28149		5.680942	1.232046	7.829896	0.003214	-0.001675	-0.001390	-0.663086	0.513672	-0.528320	0.519960	-0.220683	-0.226592	-0.793472
28150		5.700936	1.254933	7.796329	0.003430	0.001847	-0.003740	-0.667969	0.521973	-0.528076	0.519939	-0.220575	-0.226613	-0.793509
28151		5.679810	1.258913	7.803011	0.002580	0.001672	-0.004681	-0.668945	0.520996	-0.528320	0.519915	-0.220540	-0.226593	-0.793540
28152		5.690295	1.247890	7.798700	0.003823	0.000404	-0.003785	-0.667480	0.517334	-0.523682	0.519890	-0.220508	-0.226597	-0.793564
28153		5.670639	1.254840	7.821676	0.005412	-0.001274	-0.003185	-0.668213	0.513672	-0.531494	0.519839	-0.220487	-0.226648	-0.793589
28154		5.688909	1.245323	7.810642	0.006692	-0.000859	-0.004879	-0.666748	0.514404	-0.527588	0.519795	-0.220388	-0.226715	-0.793626
28155		5.671090	1.261144	7.791973	0.003250	0.000007	-0.003981	-0.661377	0.521484	-0.523438	0.519747	-0.220331	-0.226731	-0.793669
28156		5.686758	1.242633	7.776959	0.004721	-0.000451	-0.002593	-0.675293	0.522949	-0.528809	0.519765	-0.220305	-0.226710	-0.793670
28157		5.694727	1.244802	7.816196	0.004789	-0.000641	-0.003635	-0.661865	0.513428	-0.525879	0.519720	-0.220324	-0.226712	-0.793694
28158		5.681841	1.253175	7.786985	0.006345	-0.000448	-0.004584	-0.666016	0.514160	-0.528320	0.519691	-0.220230	-0.226757	-0.793727
28159		5.675263	1.256573	7.809890	0.003771	0.001434	-0.004041	-0.673584	0.523438	-0.527832	0.519657	-0.220151	-0.226761	-0.793769
28160		5.654341	1.260724	7.816389	0.005015	0.000168	-0.003144	-0.653564	0.512207	-0.523438	0.519628	-0.220170	-0.226745	-0.793787
28161		5.686888	1.249980	7.821898	0.004905	-0.001862	-0.004425	-0.675293	0.521729	-0.523438	0.519634	-0.220069	-0.226762	-0.793807
28162		5.678518	1.247871	7.811313	0.006504	0.000551	-0.003053	-0.671143	0.523926	-0.523926	0.519562	-0.220111	-0.226772	-0.793839
28163		5.677309	1.271426	7.813319	0.005789	-0.000005	-0.006078	-0.666504	0.514893	-0.524902	0.519502	-0.220143	-0.226755	-0.793875
28164		5.677146	1.248546	7.794365	0.004097	0.000182	-0.003044	-0.670654	0.512695	-0.526611	0.519456	-0.220102	-0.226761	-0.793915
28165		5.671263	1.254326	7.788008	0.002935	-0.001453	-0.002137	-0.667236	0.514648	-0.531738	0.519377	-0.220085	-0.226791	-0.793963
28166		5.684871	1.251452	7.787452	0.003835	-0.002308	-0.000943	-0.658447	0.524902	-0.526611	0.519387	-0.220023	-0.226801	-0.793970
28167		5.675404	1.267336	7.808048	0.003213	-0.001675	-0.001392	-0.663818	0.514648	-0.522217	0.519502	-0.220030	-0.226693	-0.793923
28168		5.680110	1.233403	7.807587	0.004424	-0.001070	-0.002046	-0.668213	0.520508	-0.520996	0.519463	-0.220027	-0.226702	-0.793947
28169		5.663460	1.251629	7.805483	0.004213	-0.001039	-0.003834	-0.662842	0.518311	-0.529785	0.519401	-0.220104	-0.226680	-0.793973
28170		5.677848	1.251880	7.821700	0.004079	-0.000658	-0.001749	-0.665283	0.525391	-0.530518	0.519464	-0.220036	-0.226637	-0.793963
28171		5.677081	1.250402	7.804655	0.005802	-0.002717	-0.003234	-0.664307	0.518311	-0.524902	0.519549	-0.220032	-0.226580	-0.793925
28172		5.684905	1.252746	7.797756	0.004246	-0.002910	-0.002284	-0.661865	0.521484	-0.529785	0.519547	-0.220052	-0.226568	-0.793924
28173		5.682706	1.245554	7.793214	0.004784	-0.000642	-0.003641	-0.662354	0.518555	-0.527832	0.519631	-0.219992	-0.226507	-0.793903
28174		5.663191	1.252567	7.816077	0.004834	-0.001672	-0.003387	-0.664551	0.522705	-0.523438	0.519669	-0.219950	-0.226485	-0.793895
28175		5.668518	1.270795	7.823862	0.004801	-0.003351	-0.000794	-0.663086	0.522461	-0.529297	0.519714	-0.220038	-0.226441	-0.793854
28176		5.671577	1.256013	7.808591	0.004656	-0.003512	-0.003625	-0.663574	0.515137	-0.523438	0.519788	-0.220025	-0.226397	-0.793822
28177		5.670583	1.251708	7.820560	0.004261	-0.002071	-0.003583	-0.666992	0.524170	-0.519775	0.519738	-0.220028	-0.226415	-0.793849
28178		5.685621	1.255096	7.807405	0.007154	-0.001951	-0.001062	-0.672119	0.514404	-0.530273	0.519755	-0.220168	-0.226385	-0.793808
28179		5.675923	1.247097	7.809293	0.004160	-0.000010	-0.004093	-0.662354	0.520264	-0.533936	0.519665	-0.220099	-0.226447	-0.793868
28180		5.664988	1.260880	7.813437	0.005420	-0.000436	-0.004494	-0.663330	0.521484	-0.528564	0.519773	-0.219954	-0.226403	-0.793850
28181		5.674891	1.247285	7.792171	0.003916	-0.001659	-0.003287	-0.663086	0.521729	-0.525635	0.519844	-0.219934	-0.226345	-0.793825
28182		5.676239	1.251339	7.808385	0.004816	-0.002512	-0.002093	-0.663818	0.513184	-0.525391	0.519910	-0.219968	-0.226296	-0.793787
28183		5.670748	1.281967	7.820423	0.006076	-0.002938	-0.002494	-0.663574	0.523438	-0.527588	0.519861	-0.219934	-0.226358	-0.793811
28184		5.677480	1.254221	7.807020	0.004250	-0.006163	-0.004355	-0.664062	0.520752	-0.529297	0.519927	-0.219989	-0.226318	-0.793764
28185		5.684235	1.251162	7.812324	0.007336	-0.003363	-0.002897	-0.659180	0.518066	-0.527344	0.520001	-0.219951	-0.226319	-0.793726
28186		5.673957	1.265211	7.815938	0.005635	-0.003719	-0.004776	-0.662842	0.519775	-0.533691	0.520058	-0.219897	-0.226306	-0.793707
28187		5.686762	1.260643	7.798389	0.007189	-0.003526	-0.005731	-0.664062	0.508789	-0.527588	0.520142	-0.219765	-0.226319	-0.793685
28188		5.654284	1.271803	7.821150	0.004602	-0.002484	-0.003885	-0.667236	0.513916	-0.523193	0.520022	-0.219668	-0.226419	-0.793762
28189		5.678071	1.254233	7.799310	0.003772	-0.005368	-0.001974	-0.666260	0.515869	-0.528076	0.519908	-0.219757	-0.226487	-0.793792
28190		5.678983	1.254962	7.798529	0.002101	-0.004339	-0.000232	-0.658447	0.520020	-0.534912	0.519899	-0.219774	-0.226502	-0.793790
28191		5.666089	1.256650	7.827192	0.004292	-0.003940	-0.002036	-0.667725	0.515381	-0.527344	0.520106	-0.219621	-0.226445	-0.793712
28192		5.671592	1.250188	7.816107	0.005025	-0.002540	-0.000310	-0.659180	0.515625	-0.527588	0.520069	-0.219625	-0.226494	-0.793721
28193		5.678449	1.273792	7.811281	0.003031	-0.003515	-0.001635	-0.667480	0.522461	-0.527588	0.520139	-0.219581	-0.226469	-0.793695
28194		5.679267	1.249994	7.791847	0.003639	-0.004985	0.000111	-0.665771	0.518799	-0.521729	0.520204	-0.219677	-0.226441	-0.793634
28195		5.694486	1.250062	7.807499	0.003785	-0.004531	-0.003274	-0.664551	0.516357	-0.530762	0.520153	-0.219819	-0.226445	-0.793627
28196		5.685745	1.269150	7.798588	0.004012	-0.003721	-0.002784	-0.674072	0.521240	-0.527832	0.520175	-0.219751	-0.226471	-0.793624
28197		5.669134	1.259817	7.806620	0.003895	-0.002499	-0.001996	-0.666260	0.522705	-0.529541	0.520119	-0.219847	-0.226501	-0.793625
28198		5.682889	1.257013	7.805940	0.003258	-0.002705	-0.001146	-0.662598	0.520020	-0.529297	0.520213	-0.219870	-0.226449	-0.793572
28199		5.664207	1.266126	7.799454	0.001264	-0.003680	-0.002470	-0.667969	0.520264	-0.528564	0.520293	-0.219865	-0.226391	-0.793537
28200		5.687762	1.269900	7.825448	0.004619	-0.005190	-0.001039	-0.664062	0.523193	-0.523438	0.520315	-0.219912	-0.226413	-0.793503
28201		5.676058	1.253121	7.822995	0.004202	-0.001043	-0.003849	-0.664551	0.520508	-0.525879	0.520372	-0.220000	-0.226344	-0.793462
28202		5.677633	1.260163	7.810117	0.005953	-0.001715	-0.001718	-0.667236	0.517334	-0.531250	0.520425	-0.220022	-0.226328	-0.793425
28203		5.674522	1.249795	7.788922	0.002342	-0.002691	-0.001042	-0.665039	0.522949	-0.528076	0.520433	-0.219976	-0.226344	-0.793428
28204		5.679602	1.264884	7.825789	0.004516	-0.003130	-0.001551	-0.662354	0.519043	-0.529541	0.520523	-0.220009	-0.226303	-0.793372
28205		5.681533	1.247263	7.793968	0.005218	-0.003117	-0.003445	-0.658447	0.517822	-0.521973	0.520585	-0.219950	-0.226301	-0.793348
28206		5.679366	1.264780	7.808110	0.005051	-0.000865	-0.002913	-0.661865	0.512695	-0.527344	0.520633	-0.219972	-0.226256	-0.793323
28207		5.654970	1.254674	7.822829	0.004135	-0.000851	-0.002808	-0.658936	0.525146	-0.530273	0.520602	-0.219884	-0.226293	-0.793358
28208		5.681961	1.248503	7.821936	0.005203	-0.003954	-0.002148	-0.665039	0.526855	-0.526855	0.520813	-0.219855	-0.226202	-0.793253
28209		5.670507	1.259158	7.809070	0.004757	-0.001483	-0.002361	-0.662109	0.520752	-0.531250	0.520940	-0.219926	-0.226121	-0.793173
28210		5.670656	1.260472	7.808749	0.004199	-0.001044	-0.003852	-0.665527	0.513916	-0.527344	0.521028	-0.219839	-0.226085	-0.793150
28211		5.669493	1.256061	7.820920	0.003614	-0.002280	-0.002746	-0.669189	0.517822	-0.524170	0.520947	-0.219813	-0.226145	-0.793193
28212		5.679534	1.266732	7.818279	0.003627	-0.001443	-0.004045	-0.671387	0.523193	-0.521729	0.520846	-0.219890	-0.226185	-0.793226
28213		5.681088	1.249432	7.786691	0.006437	-0.001676	-0.005408	-0.665283	0.516113	-0.532471	0.520772	-0.220047	-0.226213	-0.793224
28214		5.677334	1.261783	7.813424	0.005749	-0.000852	-0.004812	-0.664307	0.521973	-0.523438	0.520764	-0.219907	-0.226268	-0.793252
28215		5.664328	1.267187	7.813140	0.004708	-0.003710	-0.004686	-0.661865	0.522949	-0.531006	0.520773	-0.220006	-0.226248	-0.793224
28216		5.668354	1.255581	7.814584	0.005786	-0.002718	-0.003258	-0.661133	0.525146	-0.535400	0.520896	-0.219949	-0.226209	-0.793170
28217		5.678529	1.266765	7.811749	0.005571	-0.002693	-0.005049	-0.667236	0.514893	-0.527832	0.521064	-0.219829	-0.226151	-0.793110
28218		5.681458	1.252312	7.796583	0.005493	-0.003336	-0.002706	-0.667969	0.508301	-0.527100	0.520989	-0.219815	-0.226238	-0.793138
28219		5.666258	1.273363	7.810736	0.003663	-0.003310	-0.002493	-0.668213	0.516846	-0.534912	0.520814	-0.219779	-0.226377	-0.793224
28220		5.692263	1.264416	7.793133	0.005505	-0.002500	-0.004007	-0.665527	0.511719	-0.522461	0.520802	-0.219658	-0.226452	-0.793244
28221		5.673042	1.246931	7.797213	0.004246	-0.002075	-0.003602	-0.672119	0.520996	-0.525391	0.520671	-0.219697	-0.226525	-0.793298
28222		5.676869	1.259767	7.817473	0.005440	-0.002306	-0.002963	-0.665283	0.516113	-0.527100	0.520608	-0.219800	-0.226563	-0.793300
28223		5.664023	1.264681	7.817153	0.004449	-0.002935	-0.000513	-0.670410	0.521729	-0.522949	0.520607	-0.219805	-0.226592	-0.793291
28224		5.681490	1.249118	7.818350	0.007029	-0.003980	-0.002368	-0.669678	0.514404	-0.534668	0.520563	-0.219947	-0.226629	-0.793270
28225		5.672481	1.268137	7.809560	0.002288	-0.001662	-0.001301	-0.670166	0.514893	-0.525146	0.520537	-0.219841	-0.226689	-0.793299
28226		5.678980	1.264508	7.815174	0.005542	-0.004366	-0.002453	-0.661865	0.518066	-0.528320	0.520433	-0.219902	-0.226785	-0.793323
28227		5.682111	1.249677	7.799936	0.004512	-0.003129	-0.001558	-0.660889	0.520020	-0.529053	0.520501	-0.219877	-0.226772	-0.793289
28228		5.681472	1.272669	7.801397	0.004587	-0.002488	-0.003903	-0.662354	0.517822	-0.528320	0.520584	-0.219837	-0.226738	-0.793255
28229		5.669662	1.255991	7.799104	0.004803	-0.002512	-0.002114	-0.661377	0.521240	-0.521973	0.520637	-0.219807	-0.226734	-0.793230
28230		5.666643	1.243274	7.806774	0.006279	-0.006220	-0.002796	-0.671631	0.517334	-0.524414	0.520678	-0.219923	-0.226720	-0.793174
28231		5.687199	1.263875	7.801172	0.005376	-0.005372	-0.003990	-0.667236	0.516602	-0.521484	0.520560	-0.220028	-0.226808	-0.793198
28232		5.686344	1.259577	7.813141	0.003213	-0.000840	-0.002711	-0.671631	0.507324	-0.526367	0.520489	-0.220114	-0.226813	-0.793219
28233		5.673218	1.264286	7.813061	0.004115	-0.001688	-0.001518	-0.663086	0.516846	-0.527344	0.520321	-0.220085	-0.226959	-0.793295
28234		5.682152	1.244874	7.804115	0.006174	-0.004161	-0.003311	-0.662354	0.523926	-0.517578	0.520345	-0.220066	-0.226992	-0.793276
28235		5.681786	1.268225	7.805296	0.005602	-0.004561	-0.003503	-0.668213	0.521973	-0.526123	0.520367	-0.220255	-0.226928	-0.793227
28236		5.683293	1.248027	7.802780	0.004760	-0.000648	-0.003674	-0.666748	0.515381	-0.526367	0.520371	-0.220295	-0.226905	-0.793220
28237		5.673812	1.267281	7.794259	0.005040	-0.000866	-0.002929	-0.667725	0.523438	-0.526855	0.520339	-0.220274	-0.226943	-0.793236
28238		5.667850	1.270548	7.816850	0.005080	-0.002730	-0.001372	-0.673584	0.522705	-0.526123	0.520384	-0.220335	-0.226914	-0.793198
28239		5.667031	1.266173	7.828820	0.004572	-0.003324	-0.002608	-0.658936	0.515625	-0.521973	0.520336	-0.220441	-0.226933	-0.793195
28240		5.678771	1.257832	7.794723	0.004001	-0.003724	-0.002799	-0.667236	0.508545	-0.523682	0.520358	-0.220470	-0.226920	-0.793176
28241		5.686304	1.257388	7.816970	0.004239	-0.002078	-0.003611	-0.672607	0.517822	-0.527344	0.520233	-0.220451	-0.227026	-0.793233
28242		5.683324	1.272187	7.814193	0.006857	-0.004986	-0.003914	-0.666748	0.525635	-0.530762	0.520152	-0.220491	-0.227122	-0.793247
28243		5.680335	1.259821	7.821826	0.005319	-0.004344	-0.004253	-0.660889	0.520020	-0.531494	0.520221	-0.220506	-0.227090	-0.793207
28244		5.670274	1.276035	7.796304	0.003885	-0.002500	-0.002012	-0.663818	0.519531	-0.528564	0.520337	-0.220431	-0.227048	-0.793164
28245		5.665770	1.260239	7.787708	0.005152	-0.002091	-0.003722	-0.664062	0.513672	-0.530273	0.520381	-0.220397	-0.227040	-0.793146
28246		5.681762	1.263788	7.820149	0.004279	-0.003941	-0.002055	-0.665771	0.518311	-0.525635	0.520393	-0.220329	-0.227092	-0.793143
28247		5.682252	1.264977	7.819601	0.005877	-0.001517	-0.000697	-0.671143	0.517334	-0.526611	0.520420	-0.220339	-0.227098	-0.793120
28248		5.671616	1.253532	7.804998	0.002575	-0.001046	-0.001862	-0.669189	0.519775	-0.529297	0.520368	-0.220373	-0.227113	-0.793141
28249		5.677891	1.249513	7.810859	0.001143	-0.002462	-0.001686	-0.667969	0.520020	-0.535645	0.520369	-0.220399	-0.227093	-0.793138
28250		5.690496	1.268406	7.812138	0.004797	-0.002512	-0.002123	-0.668701	0.512207	-0.522705	0.520429	-0.220309	-0.227112	-0.793119
28251		5.670184	1.272283	7.818334	0.003831	-0.001471	-0.002271	-0.669189	0.516113	-0.524658	0.520336	-0.220342	-0.227169	-0.793155
28252		5.665787	1.256389	7.809693	0.005192	-0.003954	-0.002166	-0.669189	0.517822	-0.524902	0.520281	-0.220393	-0.227224	-0.793161
28253		5.681060	1.259508	7.796253	0.004506	-0.003129	-0.001568	-0.663574	0.508057	-0.530518	0.520250	-0.220449	-0.227249	-0.793159
28254		5.675429	1.262240	7.818717	0.002835	-0.002929	0.001487	-0.664551	0.521484	-0.530273	0.520266	-0.220350	-0.227314	-0.793157
28255		5.685797	1.247792	7.797276	0.005357	-0.002946	-0.000633	-0.665527	0.518311	-0.529297	0.520357	-0.220330	-0.227293	-0.793108
28256		5.685103	1.267812	7.827761	0.002731	-0.004134	-0.001093	-0.662354	0.521484	-0.527832	0.520391	-0.220336	-0.227289	-0.793086
28257		5.683548	1.260153	7.822931	0.005461	-0.005004	-0.000120	-0.667969	0.518311	-0.520020	0.520487	-0.220359	-0.227268	-0.793022
28258		5.693341	1.267473	7.803003	0.002544	-0.006809	-0.000024	-0.668945	0.520264	-0.522705	0.520439	-0.220528	-0.227276	-0.793005
28259		5.683561	1.252958	7.816889	0.003966	-0.006225	0.001101	-0.669678	0.525391	-0.526123	0.520431	-0.220664	-0.227284	-0.792970
28260		5.673939	1.265864	7.820146	0.003176	-0.006605	-0.000880	-0.671875	0.515625	-0.525879	0.520451	-0.220793	-0.227258	-0.792928
28261		5.678591	1.253534	7.821341	0.004265	-0.004776	-0.000759	-0.660645	0.518555	-0.530029	0.520390	-0.220843	-0.227328	-0.792934
28262		5.667333	1.263707	7.808325	0.003590	-0.003118	-0.001462	-0.677490	0.519775	-0.520752	0.520478	-0.220789	-0.227303	-0.792899
28263		5.669181	1.267255	7.824315	0.002315	-0.004358	0.001552	-0.671143	0.526123	-0.527588	0.520383	-0.220972	-0.227329	-0.792903
28264		5.678904	1.249737	7.785915	0.004149	-0.006814	-0.002038	-0.667480	0.519043	-0.526367	0.520392	-0.221077	-0.227323	-0.792869
28265		5.685031	1.267758	7.792931	0.003174	-0.006605	-0.000883	-0.670898	0.520508	-0.522949	0.520392	-0.221139	-0.227342	-0.792846
28266		5.675193	1.253238	7.806892	0.003561	-0.005616	0.002442	-0.668945	0.511719	-0.537842	0.520390	-0.221263	-0.227350	-0.792811
28267		5.690855	1.255661	7.793233	0.002498	-0.004948	-0.001586	-0.660400	0.520752	-0.530273	0.520389	-0.221130	-0.227441	-0.792822
28268		5.683116	1.250017	7.811435	0.004834	-0.004376	-0.000574	-0.672607	0.525391	-0.524414	0.520499	-0.221090	-0.227417	-0.792768
28269		5.685117	1.256565	7.798198	0.004439	-0.002934	-0.000531	-0.667480	0.520996	-0.526855	0.520502	-0.221193	-0.227396	-0.792743
28270		5.683340	1.249134	7.793501	0.006317	-0.003988	-0.000497	-0.664551	0.516357	-0.531494	0.520537	-0.221213	-0.227415	-0.792710
28271		5.686418	1.231789	7.807391	0.004164	-0.005150	-0.004645	-0.663574	0.520508	-0.529785	0.520539	-0.221151	-0.227461	-0.792712
28272		5.693331	1.256009	7.802095	0.007519	-0.003385	-0.001166	-0.670410	0.517822	-0.534424	0.520616	-0.221102	-0.227478	-0.792670
28273		5.677112	1.273763	7.799582	0.000558	-0.003697	-0.000576	-0.655273	0.520020	-0.515381	0.520626	-0.221066	-0.227488	-0.792671
28274		5.699527	1.249462	7.790510	0.001069	-0.003100	0.000658	-0.667725	0.520996	-0.531982	0.520700	-0.221187	-0.227379	-0.792620
28275		5.678313	1.247229	7.809147	0.004551	-0.004160	-0.001322	-0.669678	0.524414	-0.530518	0.520741	-0.221161	-0.227395	-0.792596
28276		5.682848	1.262197	7.799877	0.003006	-0.004351	-0.000354	-0.667725	0.521973	-0.527588	0.520785	-0.221195	-0.227376	-0.792563
28277		5.685929	1.244152	7.813895	0.003577	-0.003951	-0.000166	-0.665527	0.521973	-0.530273	0.520820	-0.221231	-0.227366	-0.792533
28278		5.694003	1.245976	7.806776	0.003698	-0.004345	-0.002257	-0.667236	0.522705	-0.522949	0.520861	-0.221225	-0.227359	-0.792509
28279		5.686297	1.243116	7.795873	0.004268	-0.003945	-0.002069	-0.666504	0.525146	-0.531006	0.520867	-0.221302	-0.227349	-0.792487
28280		5.693187	1.241958	7.772166	0.002724	-0.004135	-0.001100	-0.663086	0.520020	-0.531494	0.520931	-0.221316	-0.227312	-0.792451
28281		5.690999	1.232037	7.796855	0.006508	-0.000482	-0.002875	-0.662842	0.519775	-0.532959	0.520993	-0.221217	-0.227315	-0.792437
28282		5.682817	1.254672	7.804676	0.006221	-0.003533	-0.005688	-0.664795	0.518311	-0.532959	0.521022	-0.221127	-0.227347	-0.792434
28283		5.662847	1.258948	7.810638	0.004549	-0.004160	-0.001325	-0.666504	0.522217	-0.529297	0.521063	-0.221069	-0.227372	-0.792416
28284		5.689159	1.249609	7.792746	0.004259	-0.004776	-0.000768	-0.669922	0.521729	-0.529053	0.521106	-0.221087	-0.227374	-0.792382
28285		5.701997	1.241608	7.804287	0.005239	-0.004155	-0.003229	-0.662598	0.529053	-0.527100	0.521099	-0.221099	-0.227407	-0.792374
28286		5.696724	1.247668	7.797350	0.005520	-0.004370	-0.002485	-0.662842	0.517578	-0.522949	0.521194	-0.221145	-0.227358	-0.792313
28287		5.682594	1.247165	7.809639	0.004451	-0.001271	-0.003143	-0.669678	0.517090	-0.526123	0.521194	-0.221145	-0.227355	-0.792314
28288		5.681573	1.243202	7.821787	0.006387	-0.002523	-0.004158	-0.663330	0.521240	-0.529785	0.521145	-0.221134	-0.227419	-0.792331
28289		5.679763	1.263623	7.806415	0.006661	-0.003569	-0.002111	-0.668945	0.521240	-0.526367	0.521201	-0.221099	-0.227434	-0.792300
28290		5.687541	1.263387	7.828527	0.003642	-0.003317	-0.002518	-0.666016	0.519043	-0.536377	0.521192	-0.221136	-0.227439	-0.792293
28291		5.689515	1.245277	7.796782	0.004035	-0.004759	-0.002562	-0.655029	0.520264	-0.519531	0.521222	-0.221062	-0.227470	-0.792286
28292		5.704912	1.248441	7.783130	0.005518	-0.004371	-0.002488	-0.666748	0.513428	-0.527344	0.521284	-0.221108	-0.227441	-0.792240
28293		5.689766	1.242419	7.807835	0.004042	-0.003928	-0.003866	-0.667236	0.521240	-0.527344	0.521227	-0.221087	-0.227500	-0.792267
28294		5.684279	1.248302	7.801077	0.004783	-0.002516	-0.002144	-0.664795	0.529785	-0.534180	0.521244	-0.221093	-0.227504	-0.792253
28295		5.695662	1.237488	7.796213	0.004671	-0.003726	-0.004725	-0.664307	0.523438	-0.521240	0.521327	-0.221073	-0.227466	-0.792214
28296		5.686333	1.254226	7.816566	0.007288	-0.000929	0.000396	-0.658691	0.522705	-0.519287	0.521393	-0.221114	-0.227447	-0.792165
28297		5.696291	1.238047	7.824391	0.007799	-0.002767	-0.001741	-0.665771	0.526611	-0.522949	0.521460	-0.221158	-0.227432	-0.792113
28298		5.687264	1.260557	7.786146	0.009858	-0.003586	-0.006154	-0.663818	0.521240	-0.519287	0.521476	-0.221192	-0.227464	-0.792084
28299		5.689314	1.266135	7.801690	0.009607	-0.006891	-0.002733	-0.664551	0.515137	-0.539062	0.521481	-0.221271	-0.227527	-0.792041
28300		5.680607	1.258494	7.803086	0.006367	-0.004185	-0.001560	-0.673096	0.513916	-0.527832	0.521515	-0.221135	-0.227594	-0.792037
28301		5.664587	1.249638	7.810987	0.005736	-0.006827	-0.004071	-0.664062	0.520996	-0.530762	0.521416	-0.221152	-0.227709	-0.792065
28302		5.698702	1.243261	7.785929	0.018317	-0.008841	-0.005903	-0.665771	0.519775	-0.533936	0.521444	-0.221078	-0.227891	-0.792014
28303		5.688079	1.281812	7.790213	0.019231	-0.008024	-0.007327	-0.669678	0.527100	-0.529297	0.521456	-0.220959	-0.228095	-0.791980
28304		5.687737	1.279958	7.801556	0.010585	-0.003003	-0.003142	-0.660889	0.520752	-0.527100	0.521508	-0.220953	-0.228136	-0.791936
28305		5.686452	1.248459	7.806801	0.026612	-0.011009	-0.006437	-0.670410	0.515137	-0.531494	0.521558	-0.220872	-0.228397	-0.791850
28306		5.705549	1.291847	7.784641	0.024720	-0.011615	-0.003865	-0.660400	0.520996	-0.525879	0.521545	-0.220786	-0.228707	-0.791794
28307		5.682133	1.281692	7.781216	0.013793	-0.010641	-0.003787	-0.663330	0.510254	-0.529541	0.521593	-0.220809	-0.228823	-0.791723
28308		5.687634	1.270108	7.781781	-0.001458	-0.009620	-0.001330	-0.667725	0.518066	-0.528320	0.521550	-0.220855	-0.228848	-0.791731
28309		5.715597	1.289103	7.769588	-0.009404	-0.003766	-0.000344	-0.659180	0.518555	-0.532471	0.521530	-0.220958	-0.228725	-0.791751
28310		5.703245	1.267041	7.797696	-0.008683	0.005264	-0.002037	-0.667480	0.517090	-0.533203	0.521594	-0.220897	-0.228528	-0.791782
28311		5.698100	1.251531	7.807656	-0.007816	0.009553	-0.000347	-0.665283	0.518311	-0.521973	0.521624	-0.220808	-0.228346	-0.791840
28312		5.700703	1.270445	7.788184	-0.000742	0.013570	-0.002306	-0.664795	0.514404	-0.527100	0.521649	-0.220725	-0.228189	-0.791891
28313		5.693731	1.275744	7.829308	0.001503	0.007762	0.002895	-0.671875	0.510254	-0.522461	0.521708	-0.220638	-0.228103	-0.791902
28314		5.678238	1.276210	7.813726	-0.001581	0.002496	-0.001891	-0.667236	0.522461	-0.531250	0.521603	-0.220654	-0.228075	-0.791975
28315		5.680491	1.259482	7.799539	-0.002796	-0.000592	0.002698	-0.663086	0.523682	-0.531250	0.521670	-0.220686	-0.227972	-0.791951
28316		5.693233	1.249471	7.811535	-0.003892	-0.005696	0.000519	-0.672363	0.519775	-0.526367	0.521731	-0.220761	-0.227879	-0.791917
28317		5.704194	1.260638	7.779110	-0.004065	-0.006711	-0.001015	-0.668701	0.519775	-0.527588	0.521671	-0.220894	-0.227841	-0.791930
28318		5.689502	1.253099	7.803835	-0.001039	-0.005303	-0.003226	-0.668701	0.522949	-0.537598	0.521630	-0.220963	-0.227820	-0.791944
28319		5.662569	1.257665	7.787091	-0.000411	-0.005102	-0.004087	-0.651367	0.516846	-0.531494	0.521633	-0.220952	-0.227802	-0.791950
28320		5.697207	1.249719	7.808598	0.002268	-0.004109	-0.004692	-0.666016	0.522705	-0.523193	0.521699	-0.220883	-0.227776	-0.791934
28321		5.696695	1.247632	7.791351	0.002493	-0.004123	-0.002901	-0.662598	0.527100	-0.532227	0.521696	-0.220958	-0.227754	-0.791921
28322		5.683838	1.252349	7.791122	0.004722	-0.001488	-0.002415	-0.664062	0.517334	-0.529785	0.521788	-0.220926	-0.227714	-0.791881
28323		5.686587	1.262166	7.794662	0.003921	-0.002705	-0.003089	-0.664795	0.523926	-0.528320	0.521788	-0.220893	-0.227726	-0.791886
28324		5.690744	1.250387	7.796242	0.004942	-0.003945	-0.003994	-0.668457	0.521973	-0.527588	0.521812	-0.220906	-0.227728	-0.791867
28325		5.691561	1.251838	7.795413	0.004707	-0.005589	-0.003178	-0.661865	0.520020	-0.527100	0.521800	-0.220947	-0.227755	-0.791855
28326		5.707059	1.255104	7.781587	0.005276	-0.005187	-0.002993	-0.667236	0.526367	-0.527588	0.521821	-0.220956	-0.227774	-0.791833
28327		5.689781	1.240455	7.802266	0.004308	-0.004975	-0.001830	-0.665527	0.523438	-0.531006	0.521858	-0.221012	-0.227766	-0.791796
28328		5.687023	1.252543	7.828416	0.005846	-0.004785	-0.002809	-0.663086	0.522217	-0.524658	0.521892	-0.221007	-0.227786	-0.791769
28329		5.681931	1.260629	7.792175	0.003110	-0.005578	-0.001155	-0.667969	0.523682	-0.530029	0.521922	-0.221071	-0.227772	-0.791735
28330		5.688795	1.256799	7.797630	0.001810	-0.003297	-0.002299	-0.671143	0.513184	-0.525635	0.521937	-0.221095	-0.227748	-0.791726
28331		5.682333	1.256616	7.803378	0.003963	-0.005390	-0.000225	-0.655029	0.527344	-0.525146	0.521879	-0.221130	-0.227806	-0.791738
28332		5.690542	1.258633	7.796059	0.005787	-0.004585	-0.001764	-0.666504	0.515869	-0.527588	0.521992	-0.221157	-0.227767	-0.791666
28333		5.699860	1.236728	7.816225	0.004023	-0.004763	-0.002578	-0.666992	0.522217	-0.527344	0.521961	-0.221161	-0.227804	-0.791676
28334		5.689839	1.252335	7.790472	0.003396	-0.004964	-0.001717	-0.668213	0.517822	-0.523682	0.521970	-0.221203	-0.227805	-0.791657
28335		5.717368	1.246193	7.789052	0.004079	-0.004963	-0.003627	-0.670410	0.517090	-0.522705	0.521919	-0.221247	-0.227838	-0.791670
28336		5.691324	1.254662	7.789012	0.004430	-0.002103	-0.001863	-0.670654	0.526611	-0.533447	0.521875	-0.221275	-0.227857	-0.791685
28337		5.695410	1.242459	7.790736	0.003516	-0.002919	-0.000441	-0.670410	0.520996	-0.526367	0.521923	-0.221279	-0.227839	-0.791657
28338		5.684013	1.250332	7.806921	0.004988	-0.004976	-0.003745	-0.670166	0.523682	-0.522705	0.521887	-0.221314	-0.227875	-0.791661
28339		5.700617	1.258693	7.780563	0.003282	-0.004562	0.000377	-0.669434	0.515381	-0.526855	0.521895	-0.221405	-0.227862	-0.791634
28340		5.695457	1.234403	7.813738	0.003908	-0.004361	-0.000486	-0.668213	0.524902	-0.526123	0.521867	-0.221419	-0.227897	-0.791638
28341		5.705818	1.247306	7.781343	0.004537	-0.003333	-0.002655	-0.667725	0.524414	-0.515381	0.521878	-0.221453	-0.227889	-0.791624
28342		5.672645	1.252515	7.816910	0.004874	-0.004574	-0.001652	-0.658203	0.518555	-0.532227	0.521867	-0.221574	-0.227877	-0.791601
28343		5.707495	1.247288	7.808972	0.004870	-0.005401	-0.000347	-0.674805	0.519287	-0.523926	0.521935	-0.221535	-0.227891	-0.791563
28344		5.704715	1.236879	7.787594	0.005271	-0.004362	-0.004309	-0.666504	0.525635	-0.526611	0.521856	-0.221578	-0.227942	-0.791588
28345		5.706555	1.243855	7.774249	0.003738	-0.003724	-0.004634	-0.665527	0.518066	-0.520264	0.521858	-0.221608	-0.227927	-0.791583
28346		5.694966	1.252117	7.790525	0.006586	-0.002540	-0.002406	-0.663086	0.517090	-0.527344	0.521843	-0.221627	-0.227949	-0.791581
28347		5.699066	1.240370	7.792184	0.004196	-0.002920	-0.002355	-0.656738	0.521240	-0.534912	0.521849	-0.221604	-0.227958	-0.791581
28348		5.699524	1.241662	7.791643	0.005676	-0.002529	-0.002289	-0.665771	0.524414	-0.517822	0.521940	-0.221515	-0.227954	-0.791547
28349		5.688982	1.255166	7.795427	0.003288	-0.002082	-0.003543	-0.664062	0.515381	-0.527100	0.521928	-0.221591	-0.227913	-0.791545
28350		5.691855	1.240046	7.780547	0.003964	-0.003736	-0.002843	-0.665771	0.518799	-0.524658	0.521911	-0.221574	-0.227936	-0.791555
28351		5.700780	1.245412	7.790126	0.004767	-0.001691	-0.003478	-0.666504	0.518799	-0.531250	0.521896	-0.221565	-0.227940	-0.791566
28352		5.688812	1.253515	7.806708	0.003804	-0.000651	-0.003618	-0.664795	0.519043	-0.528809	0.521895	-0.221508	-0.227939	-0.791583
28353		5.694933	1.250296	7.812624	0.004143	-0.001065	-0.003921	-0.665283	0.520264	-0.522217	0.521894	-0.221467	-0.227937	-0.791596
28354		5.691452	1.239928	7.791761	0.005905	-0.001712	-0.001805	-0.658936	0.514160	-0.525879	0.521902	-0.221478	-0.227936	-0.791588
28355		5.695272	1.255323	7.782687	0.003573	-0.001468	-0.004106	-0.666260	0.520020	-0.526611	0.521897	-0.221431	-0.227934	-0.791605
28356		5.707640	1.247691	7.794622	0.005960	-0.001914	-0.002854	-0.668457	0.515137	-0.523438	0.521899	-0.221413	-0.227947	-0.791605
28357		5.704242	1.262399	7.791952	0.004821	-0.001893	-0.004528	-0.675537	0.523438	-0.537598	0.521834	-0.221406	-0.227973	-0.791642
28358		5.705741	1.266846	7.808125	0.003231	-0.001880	-0.002498	-0.668945	0.516357	-0.522217	0.521829	-0.221367	-0.227979	-0.791654
28359		5.695083	1.255445	7.793704	0.004820	-0.001894	-0.004529	-0.667969	0.522949	-0.524658	0.521766	-0.221375	-0.227997	-0.791689
28360		5.681944	1.260771	7.793599	0.006299	-0.001502	-0.004465	-0.667725	0.512939	-0.530029	0.521752	-0.221374	-0.228001	-0.791696
28361		5.695456	1.258732	7.792901	0.004710	-0.001489	-0.002434	-0.666748	0.515137	-0.526367	0.521727	-0.221316	-0.228034	-0.791720
28362		5.671473	1.248721	7.808047	0.003626	-0.001671	-0.005157	-0.670654	0.524170	-0.524658	0.521675	-0.221290	-0.228046	-0.791758
28363		5.705575	1.244066	7.800547	0.006582	-0.001714	-0.003722	-0.669189	0.521240	-0.523193	0.521659	-0.221304	-0.228051	-0.791764
28364		5.690296	1.240783	7.796317	0.005265	-0.004364	-0.004318	-0.663330	0.522949	-0.525391	0.521617	-0.221346	-0.228067	-0.791775
28365		5.679784	1.254767	7.799976	0.006012	-0.001291	-0.005214	-0.663330	0.519043	-0.522461	0.521625	-0.221328	-0.228059	-0.791777
28366		5.696826	1.241991	7.772335	0.004478	-0.001480	-0.004230	-0.667236	0.522705	-0.526855	0.521611	-0.221329	-0.228045	-0.791790
28367		5.679950	1.257982	7.799338	0.006133	-0.000069	-0.002632	-0.667725	0.522705	-0.526855	0.521629	-0.221304	-0.228034	-0.791788
28368		5.679857	1.259445	7.799169	0.003230	-0.000231	-0.005115	-0.665771	0.524902	-0.527832	0.521611	-0.221294	-0.228002	-0.791812
28369		5.691854	1.254112	7.782123	0.005278	-0.000261	-0.003561	-0.671875	0.520508	-0.526855	0.521637	-0.221273	-0.227975	-0.791808
28370		5.680801	1.240558	7.797272	0.002837	0.001211	-0.005072	-0.660889	0.519287	-0.524902	0.521590	-0.221252	-0.227947	-0.791853
28371		5.689093	1.248195	7.778028	0.004423	-0.001278	-0.003183	-0.666016	0.512451	-0.524414	0.521608	-0.221236	-0.227926	-0.791852
28372		5.665159	1.265120	7.782149	0.003283	-0.002909	-0.002242	-0.666748	0.522949	-0.534912	0.521568	-0.221234	-0.227938	-0.791875
28373		5.692546	1.256618	7.810127	0.002767	-0.004340	-0.002167	-0.665039	0.516602	-0.525635	0.521597	-0.221224	-0.227931	-0.791861
28374		5.696983	1.246780	7.782379	0.004354	-0.005179	-0.002894	-0.671387	0.519775	-0.531006	0.521574	-0.221242	-0.227954	-0.791865
28375		5.688245	1.238504	7.784075	0.004353	-0.005179	-0.002894	-0.661865	0.520508	-0.523438	0.521546	-0.221251	-0.227983	-0.791872
28376		5.680606	1.260368	7.791409	0.003906	-0.004358	-0.000494	-0.668945	0.517822	-0.521240	0.521576	-0.221291	-0.227964	-0.791846
28377		5.693452	1.252437	7.803083	0.004244	-0.003123	-0.003413	-0.666748	0.519287	-0.531494	0.521523	-0.221327	-0.227967	-0.791870
28378		5.685415	1.249595	7.792464	0.004759	-0.002517	-0.002182	-0.660889	0.515137	-0.523682	0.521537	-0.221294	-0.227976	-0.791868
28379		5.689613	1.265000	7.783035	0.004975	-0.004979	-0.003762	-0.662598	0.522217	-0.523193	0.521520	-0.221300	-0.228001	-0.791870
28380		5.696478	1.261737	7.788436	0.004190	-0.003744	-0.001058	-0.663574	0.523438	-0.527588	0.521549	-0.221339	-0.227976	-0.791848
28381		5.701977	1.252655	7.806715	0.002888	-0.002292	-0.000893	-0.670410	0.523193	-0.528076	0.521593	-0.221351	-0.227934	-0.791827
28382		5.687991	1.226616	7.801016	0.004366	-0.002723	0.000477	-0.671875	0.516602	-0.525879	0.521616	-0.221372	-0.227918	-0.791811
28383		5.690728	1.263598	7.793383	0.005435	-0.002521	-0.004099	-0.663574	0.526367	-0.535400	0.521554	-0.221364	-0.227948	-0.791845
28384		5.681539	1.255434	7.795411	0.004473	-0.003131	-0.001622	-0.665039	0.523438	-0.521973	0.521628	-0.221335	-0.227932	-0.791810
28385		5.693252	1.242112	7.819741	0.003672	-0.004352	-0.002291	-0.665039	0.524414	-0.530762	0.521627	-0.221395	-0.227907	-0.791800
28386		5.680534	1.248886	7.790152	0.004188	-0.003744	-0.001060	-0.664795	0.522461	-0.523682	0.521672	-0.221400	-0.227893	-0.791774
28387		5.675537	1.251967	7.812366	0.003104	-0.006403	0.000143	-0.674561	0.511475	-0.527588	0.521690	-0.221475	-0.227877	-0.791745
28388		5.691130	1.254416	7.798469	0.002764	-0.005165	-0.000862	-0.673096	0.524658	-0.528320	0.521617	-0.221495	-0.227914	-0.791777
28389		5.708959	1.238661	7.799671	0.004810	-0.003545	-0.001928	-0.666748	0.525879	-0.523193	0.521605	-0.221521	-0.227913	-0.791778
28390		5.695987	1.245748	7.770207	0.004524	-0.002511	-0.003982	-0.669434	0.522461	-0.529785	0.521598	-0.221554	-0.227885	-0.791781
28391		5.679281	1.261726	7.797110	0.005555	-0.000473	-0.002828	-0.666016	0.526611	-0.528076	0.521604	-0.221518	-0.227880	-0.791789
28392		5.709788	1.242892	7.798390	0.005039	-0.001904	-0.002751	-0.675537	0.527588	-0.520020	0.521633	-0.221518	-0.227855	-0.791777
28393		5.691916	1.255345	7.808708	0.002368	-0.002076	-0.003436	-0.666504	0.531006	-0.523682	0.521578	-0.221603	-0.227803	-0.791805
28394		5.681314	1.268763	7.812495	0.005377	-0.002318	-0.003056	-0.665771	0.499756	-0.525635	0.521602	-0.221644	-0.227761	-0.791789
28395		5.695018	1.241526	7.793528	0.004416	-0.002103	-0.001885	-0.668457	0.511230	-0.524414	0.521536	-0.221571	-0.227825	-0.791835
28396		5.690445	1.250545	7.803521	0.004467	-0.001485	-0.004244	-0.674072	0.518066	-0.529297	0.521471	-0.221537	-0.227849	-0.791880
28397		5.691692	1.257278	7.790555	0.004076	-0.000866	-0.002891	-0.661621	0.521240	-0.524902	0.521430	-0.221511	-0.227852	-0.791913
28398		5.668966	1.252528	7.793116	0.004754	-0.002517	-0.002190	-0.675537	0.515869	-0.532471	0.521456	-0.221511	-0.227833	-0.791902
28399		5.698571	1.255342	7.795747	0.005716	-0.003555	-0.002053	-0.659912	0.515869	-0.525635	0.521415	-0.221480	-0.227883	-0.791923
28400		5.694331	1.239423	7.787344	0.003382	-0.003320	-0.004350	-0.668701	0.524902	-0.525879	0.521406	-0.221466	-0.227881	-0.791934
28401		5.685046	1.256295	7.807612	0.004804	-0.001899	-0.004550	-0.663574	0.514893	-0.526367	0.521388	-0.221474	-0.227862	-0.791949
28402		5.696396	1.243617	7.832161	0.005997	-0.002119	-0.003928	-0.666016	0.517578	-0.523438	0.521374	-0.221431	-0.227886	-0.791963
28403		5.693101	1.260320	7.800010	0.004862	-0.004572	-0.001673	-0.656982	0.521729	-0.524902	0.521359	-0.221457	-0.227895	-0.791963
28404		5.677011	1.251201	7.808352	0.005198	-0.004164	-0.003287	-0.665527	0.519775	-0.521973	0.521396	-0.221461	-0.227887	-0.791940
28405		5.687244	1.262256	7.805049	0.005998	-0.002942	-0.002620	-0.668701	0.518066	-0.522461	0.521384	-0.221475	-0.227888	-0.791943
28406		5.694937	1.264715	7.797958	0.004856	-0.002928	-0.004293	-0.666748	0.520508	-0.523438	0.521332	-0.221489	-0.227892	-0.791973
28407		5.702614	1.240164	7.802086	0.005940	-0.001092	-0.004191	-0.664062	0.518555	-0.523926	0.521311	-0.221477	-0.227886	-0.791992
28408		5.685787	1.258428	7.799707	0.004517	-0.002514	-0.003990	-0.663818	0.523926	-0.530029	0.521293	-0.221474	-0.227879	-0.792006
28409		5.701753	1.264915	7.802855	0.004124	-0.001072	-0.003946	-0.662109	0.523926	-0.523193	0.521317	-0.221444	-0.227852	-0.792007
28410		5.675246	1.248532	7.785051	0.006510	-0.001510	-0.002702	-0.668213	0.514648	-0.525146	0.521346	-0.221441	-0.227832	-0.791994
28411		5.688741	1.271546	7.802451	0.004462	-0.001487	-0.004251	-0.665039	0.517822	-0.533447	0.521297	-0.221417	-0.227839	-0.792031
28412		5.691430	1.256638	7.787778	0.004516	-0.002514	-0.003992	-0.669434	0.522705	-0.528076	0.521301	-0.221363	-0.227855	-0.792039
28413		5.691821	1.258077	7.787259	0.005657	-0.002527	-0.002320	-0.666504	0.513672	-0.523193	0.521301	-0.221360	-0.227853	-0.792040
28414		5.690164	1.248623	7.811997	0.004236	-0.003949	-0.002118	-0.666260	0.520752	-0.526611	0.521266	-0.221372	-0.227864	-0.792057
28415		5.705104	1.251706	7.798421	0.005888	-0.001709	-0.001836	-0.661133	0.513672	-0.525635	0.521279	-0.221356	-0.227859	-0.792054
28416		5.691907	1.256590	7.798438	0.003784	-0.000658	-0.003645	-0.665039	0.521240	-0.530029	0.521272	-0.221312	-0.227848	-0.792074
28417		5.683335	1.253180	7.788320	0.000335	0.000407	-0.001615	-0.666016	0.521973	-0.527100	0.521297	-0.221295	-0.227777	-0.792083
28418		5.682263	1.248437	7.800874	0.004590	-0.001078	-0.000358	-0.663086	0.524902	-0.531738	0.521329	-0.221287	-0.227748	-0.792072
28419		5.686047	1.263541	7.791675	0.003607	-0.002505	-0.003870	-0.666260	0.518555	-0.526123	0.521358	-0.221271	-0.227726	-0.792064
28420		5.706810	1.259999	7.813855	0.003907	0.001394	-0.002371	-0.663574	0.515625	-0.531006	0.521359	-0.221232	-0.227688	-0.792085
28421		5.749695	1.214325	7.768211	0.002209	0.005108	-0.003470	-0.666260	0.525391	-0.526855	0.521374	-0.221126	-0.227630	-0.792122
28422		5.653557	1.257964	7.831638	0.003404	0.011460	-0.006028	-0.661133	0.517578	-0.534180	0.521389	-0.221000	-0.227512	-0.792181
28423		5.700945	1.260428	7.800058	0.004711	0.008366	-0.003575	-0.661621	0.516602	-0.523926	0.521445	-0.220833	-0.227456	-0.792207
28424		5.707318	1.240826	7.793415	0.002335	0.012909	-0.004069	-0.658203	0.520508	-0.530273	0.521464	-0.220688	-0.227329	-0.792271
28425		5.667741	1.259430	7.828766	0.011086	0.008299	0.002866	-0.657471	0.520752	-0.529541	0.521612	-0.220526	-0.227299	-0.792228
28426		5.686994	1.177848	7.809475	0.032001	-0.001169	0.006086	-0.655029	0.527832	-0.531006	0.521822	-0.220337	-0.227526	-0.792077
28427		5.668063	1.319667	7.862902	0.043770	-0.007051	0.006333	-0.662598	0.513184	-0.530518	0.522091	-0.220143	-0.227887	-0.791849
28428		5.766059	1.187866	7.818465	0.064416	0.006905	0.024226	-0.667480	0.515625	-0.530029	0.522538	-0.219700	-0.228356	-0.791542
28429		5.624461	1.260431	7.862651	0.062750	0.021892	0.018253	-0.658936	0.521484	-0.530518	0.522942	-0.219128	-0.228720	-0.791329
28430		5.786738	1.095130	7.864627	0.091160	0.028286	0.008424	-0.659424	0.517822	-0.526123	0.523407	-0.218288	-0.229324	-0.791079
28431		5.623832	1.312816	7.762211	0.098458	0.038152	-0.012928	-0.657959	0.524170	-0.522461	0.523674	-0.217265	-0.229990	-0.790990
28432		5.559723	1.378799	7.792300	0.073754	0.016874	-0.014768	-0.663330	0.518799	-0.536621	0.523811	-0.216657	-0.230522	-0.790912
28433		5.387038	1.623233	7.817129	0.031095	-0.023977	0.001969	-0.665283	0.514893	-0.527832	0.523874	-0.216712	-0.230896	-0.790746
28434		5.250721	1.764299	7.863405	-0.068074	-0.118790	0.074658	-0.659424	0.522949	-0.533936	0.524064	-0.218597	-0.230708	-0.790156
28435		5.423736	1.358873	7.907194	-0.114289	-0.201225	0.147342	-0.670166	0.527100	-0.526855	0.524682	-0.221768	-0.230398	-0.788952
28436		5.801475	0.713662	7.851975	-0.050668	-0.209417	0.109362	-0.661621	0.524902	-0.531738	0.525014	-0.224519	-0.230873	-0.787813
28437		5.746797	1.138192	7.615136	0.027783	-0.181165	0.046037	-0.671387	0.526855	-0.511963	0.525080	-0.226217	-0.232135	-0.786912
28438		5.835845	1.643155	7.662092	0.017368	-0.089367	0.161084	-0.668457	0.524658	-0.525635	0.526426	-0.227514	-0.232333	-0.785579
28439		5.814390	0.769318	7.688139	0.042535	-0.026671	0.192114	-0.667969	0.533691	-0.518066	0.528366	-0.228028	-0.232319	-0.784131
28440		5.668331	1.422784	7.881548	0.066313	-0.065391	0.163299	-0.659912	0.528076	-0.517334	0.529964	-0.228739	-0.232842	-0.782689
28441		5.333678	1.382662	7.989965	0.134299	-0.217834	0.271638	-0.665283	0.538574	-0.516846	0.532372	-0.230772	-0.234742	-0.779885
28442		6.151628	0.505539	7.519703	0.116426	-0.244237	0.216608	-0.660645	0.538086	-0.512451	0.534099	-0.233039	-0.236779	-0.777410
28443		6.718592	0.793750	6.867131	0.075151	-0.033479	0.009852	-0.662354	0.536621	-0.518311	0.534326	-0.232915	-0.237608	-0.777039
28444		5.584335	0.664921	8.587645	0.125528	-0.095303	-0.220794	-0.671875	0.523926	-0.516357	0.532283	-0.232344	-0.240029	-0.777867
28445		4.253161	1.092957	10.532055	0.336329	-1.105401	-0.343759	-0.689453	0.513672	-0.498779	0.526502	-0.239789	-0.251563	-0.775895
28446		3.562309	1.232044	12.228992	0.768352	-3.013916	-0.393956	-0.730713	0.498779	-0.452637	0.515049	-0.262540	-0.279741	-0.766513
28447		3.968309	1.583127	12.305964	0.880965	-5.214039	-0.234017	-0.789062	0.485107	-0.360840	0.496270	-0.305427	-0.321744	-0.746265
28448		10.936561	1.774949	10.233993	0.952584	-5.870986	-0.088187	-0.835449	0.467041	-0.264648	0.473978	-0.353109	-0.366284	-0.718676
28449		18.069528	-0.988250	4.107035	1.665788	-3.702207	-0.404018	-0.854980	0.440918	-0.204346	0.459984	-0.374112	-0.404348	-0.696389
28450		17.797075	1.454286	-2.953233	1.463498	-0.500882	0.694599	-0.833252	0.437256	-0.220215	0.470051	-0.373381	-0.416534	-0.682743
28451		5.049187	2.926530	-4.837248	-0.983422	0.951842	1.768644	-0.800049	0.485352	-0.224365	0.485287	-0.379837	-0.394102	-0.681838
28452		2.345791	5.038181	-2.196765	-2.190028	1.204891	0.992053	-0.773926	0.508545	-0.226074	0.489044	-0.387421	-0.363150	-0.692000
28453		-6.102694	0.371166	-7.257906	-1.809278	-0.183510	-0.256364	-0.783691	0.515869	-0.198242	0.477149	-0.398772	-0.349728	-0.700714
28454		1.062420	2.145826	-2.636246	-0.938905	-1.988759	-0.455042	-0.805176	0.524658	-0.134033	0.459650	-0.419653	-0.355474	-0.697317
28455		-2.406975	1.681266	1.400883	-1.360615	-1.624403	-0.226361	-0.819824	0.524658	-0.080322	0.443200	-0.440496	-0.354004	-0.695858
28456		34.284708	-6.286359	-1.320016	-0.861789	1.581215	-0.077870	-0.822021	0.530518	-0.101807	0.444680	-0.431086	-0.338064	-0.708617
28457		11.455426	2.374543	11.269092	0.119261	5.497835	-0.965362	-0.826904	0.515625	-0.206787	0.458964	-0.376683	-0.312987	-0.741284
28458		5.243150	2.933342	10.674443	0.290584	5.416195	-0.429026	-0.781494	0.519531	-0.309814	0.476476	-0.322398	-0.285918	-0.766343
28459		2.481725	4.374636	14.196356	-0.292458	3.307987	0.291894	-0.750244	0.518311	-0.373047	0.489572	-0.293341	-0.261972	-0.778230
28460		4.774976	1.994991	10.685228	-0.248966	0.847302	0.687379	-0.742920	0.548096	-0.385498	0.498088	-0.288900	-0.251758	-0.777858
28461		6.619703	-0.597551	8.538330	0.005801	-0.294989	0.573515	-0.728027	0.553223	-0.379395	0.502757	-0.293591	-0.251494	-0.773169
28462		6.010288	-1.865136	9.834884	0.300003	-1.290374	-0.250552	-0.747070	0.543945	-0.346436	0.497329	-0.303382	-0.263301	-0.768958
28463		4.445237	1.442968	12.101693	0.467701	-3.060987	-0.610370	-0.783936	0.528076	-0.300781	0.482749	-0.327701	-0.288816	-0.759046
28464		6.456050	2.141767	12.259195	0.454988	-5.062804	-0.231043	-0.824707	0.512939	-0.206055	0.463136	-0.371498	-0.323871	-0.736615
28465		14.991680	2.252837	9.715590	0.934393	-5.631406	0.071732	-0.835693	0.499268	-0.115967	0.444085	-0.417279	-0.363686	-0.704556
28466		15.246635	0.748142	1.331566	1.804237	-3.424716	0.184563	-0.841309	0.494629	-0.070801	0.438981	-0.437725	-0.396988	-0.676825
28467		21.732576	5.290187	-0.861355	1.061054	-0.061908	1.265430	-0.808105	0.502686	-0.092773	0.455047	-0.438555	-0.399119	-0.664308
28468		2.303050	3.650778	-2.091434	-0.910307	2.762841	0.833636	-0.779297	0.528564	-0.143311	0.470434	-0.424567	-0.370866	-0.678891
28469		-5.163739	-0.065341	-6.583522	-0.695015	1.049613	0.214100	-0.765137	0.531738	-0.156006	0.473409	-0.420667	-0.357534	-0.686362
28470		-0.460165	-0.774037	-3.709359	0.330578	-0.828715	-0.127166	-0.775635	0.526855	-0.140625	0.470357	-0.425226	-0.365863	-0.681242
28471		2.109420	-0.743132	0.047348	0.717945	-0.536611	-0.023803	-0.784424	0.529297	-0.146729	0.471520	-0.425446	-0.375190	-0.675201
28472		0.950298	-1.393828	-1.738117	0.222270	-0.350129	0.208470	-0.800049	0.524414	-0.133789	0.472859	-0.428063	-0.377979	-0.671043
28473		0.854854	-2.238305	-3.072347	-0.299210	-0.688045	0.388905	-0.795166	0.557129	-0.110840	0.471268	-0.437432	-0.377390	-0.666436
28474		39.132215	-0.922762	-4.360434	-0.973638	1.558875	0.165758	-0.799316	0.560791	-0.123047	0.474598	-0.430867	-0.359071	-0.678364
28475		9.090001	-1.157728	10.565875	-0.403303	6.366931	-1.175904	-0.795410	0.546143	-0.245361	0.489500	-0.372693	-0.323105	-0.719092
28476		5.404926	5.092010	12.703714	0.342771	6.016149	-0.817430	-0.758057	0.537598	-0.351807	0.506655	-0.312258	-0.292282	-0.748576
28477		2.752388	6.047502	11.479365	-0.326658	4.302310	0.400947	-0.708496	0.558838	-0.426514	0.524121	-0.275211	-0.259966	-0.762872
28478		4.656381	0.140604	10.607125	-0.376715	2.574484	0.885997	-0.673340	0.571777	-0.468994	0.539375	-0.255944	-0.236245	-0.766652
28479		4.288513	-1.978902	11.336990	-0.000327	0.704531	0.371148	-0.659668	0.579590	-0.476807	0.544984	-0.250327	-0.230228	-0.766370
28480		4.378845	-1.636618	11.445388	0.489267	-1.065490	-0.543284	-0.681885	0.563477	-0.462158	0.538161	-0.255644	-0.243753	-0.765253
28481		2.846931	1.098643	13.169929	0.826874	-3.447083	-0.868858	-0.721436	0.544434	-0.411377	0.521402	-0.280167	-0.277249	-0.756822
28482		3.137364	2.878289	12.627051	0.768899	-5.898650	-0.394249	-0.780029	0.520996	-0.314697	0.498477	-0.328795	-0.323386	-0.734055
28483		12.762564	1.719062	11.118014	0.947421	-6.959739	0.029244	-0.833008	0.510986	-0.190186	0.472574	-0.385539	-0.373832	-0.698772
28484		20.818902	-1.356582	3.176997	1.990406	-4.673762	-0.090265	-0.843262	0.487061	-0.123291	0.458512	-0.413386	-0.418289	-0.666268
28485		23.380309	-0.082987	-5.885476	3.325311	-1.042086	1.957638	-0.810791	0.502197	-0.138428	0.485899	-0.412671	-0.441152	-0.631656
28486		-0.675758	8.503623	-5.225189	-0.406798	1.136322	2.104021	-0.767334	0.542725	-0.156982	0.506373	-0.417549	-0.419878	-0.626851
28487		1.631519	6.615368	1.181200	-2.585389	0.078986	0.745338	-0.751953	0.567871	-0.134033	0.498842	-0.436959	-0.394915	-0.635818
28488		-1.826557	2.666872	4.227604	-2.084589	1.205808	-0.786466	-0.756592	0.557373	-0.134033	0.486934	-0.436270	-0.374860	-0.657300
28489		-4.322271	-1.145947	0.851208	-0.913445	1.051786	-0.927182	-0.773193	0.531250	-0.149658	0.479172	-0.428748	-0.365844	-0.672851
28490		1.319153	-2.266563	1.199755	0.392788	1.100229	-0.595671	-0.770996	0.520508	-0.181641	0.481249	-0.414355	-0.365607	-0.680471
28491		-0.743513	-1.008136	-1.855286	0.362078	1.297365	-0.548906	-0.784180	0.516846	-0.212891	0.484340	-0.398550	-0.363576	-0.688756
28492		0.423288	-5.467122	-6.346748	0.093424	-0.305009	0.191782	-0.794434	0.531006	-0.213379	0.485123	-0.401453	-0.365196	-0.685655
28493		57.659320	-5.668072	-11.487886	-0.439747	2.896408	-0.580655	-0.796143	0.515625	-0.274414	0.490976	-0.376311	-0.346512	-0.705168
28494		0.257657	10.711128	20.115148	0.000834	7.268955	-1.926333	-0.777832	0.494385	-0.397705	0.503466	-0.302359	-0.309573	-0.747840
28495		3.644940	4.812914	9.986690	-0.727792	5.841581	-0.244484	-0.710449	0.500977	-0.497070	0.519718	-0.250657	-0.266126	-0.772167
28496		0.179970	2.699276	14.583593	-0.953538	3.352790	0.764997	-0.654053	0.533203	-0.535889	0.534811	-0.226821	-0.232472	-0.780055
28497		3.592874	-0.363261	11.183279	-0.313808	0.391901	0.419537	-0.644531	0.537109	-0.540771	0.539174	-0.226324	-0.225541	-0.779231
28498		6.835302	-0.391238	7.338564	-0.067388	-0.150240	0.225394	-0.645264	0.548096	-0.540527	0.540775	-0.228880	-0.225189	-0.777474
28499		6.496653	-0.308894	7.543338	0.135547	-0.066237	-0.189762	-0.654785	0.541260	-0.545166	0.539160	-0.228079	-0.227428	-0.778179
28500		5.336833	1.612952	7.961934	0.154768	-0.203631	-0.322575	-0.663330	0.537354	-0.539795	0.535905	-0.228106	-0.231154	-0.779321
28501		5.211705	1.352991	7.908704	0.119419	-0.393311	-0.284116	-0.660156	0.530762	-0.532715	0.532353	-0.230322	-0.235687	-0.779746
28502		5.281464	0.841551	7.875987	0.104474	-0.498586	-0.277846	-0.678955	0.520264	-0.530029	0.528495	-0.233667	-0.240746	-0.779830
28503		6.343017	1.820129	6.861655	0.086866	-0.328271	-0.182827	-0.682373	0.512695	-0.522461	0.525993	-0.235746	-0.244218	-0.779816
28504		6.625266	2.003464	6.391418	0.004786	0.120649	0.011108	-0.679688	0.511719	-0.525391	0.526506	-0.234579	-0.243366	-0.780088
28505		5.985644	1.567446	7.139927	-0.143142	0.624632	0.143208	-0.666260	0.519531	-0.531982	0.529392	-0.229865	-0.237366	-0.781385
28506		5.428710	0.057252	8.276622	-0.144744	0.564403	0.089129	-0.656494	0.527344	-0.535645	0.531539	-0.225577	-0.231891	-0.782820
28507		5.560138	0.956617	8.408580	0.007284	0.211806	-0.085324	-0.661621	0.521729	-0.545898	0.531367	-0.223216	-0.230725	-0.783958
28508		5.780578	1.503140	7.928846	0.047803	0.001408	-0.094757	-0.659180	0.511475	-0.540771	0.530598	-0.222618	-0.231376	-0.784456
28509		5.776453	1.477549	7.840717	0.018225	-0.051554	-0.014435	-0.654541	0.519043	-0.544434	0.530375	-0.222968	-0.231866	-0.784363
28510		5.822410	1.178820	7.766829	0.013804	-0.079940	0.013658	-0.668213	0.517090	-0.534912	0.530348	-0.223703	-0.232422	-0.784008
28511		5.804602	1.086118	7.641074	0.025573	-0.064887	-0.012978	-0.663574	0.520996	-0.531494	0.530112	-0.224146	-0.233065	-0.783850
28512		5.934814	1.208905	7.561975	0.030640	-0.013925	-0.041723	-0.662842	0.519775	-0.536133	0.529764	-0.223971	-0.233498	-0.784006
28513		5.911267	1.284392	7.552078	0.008800	0.062838	-0.042676	-0.653809	0.517334	-0.539307	0.529575	-0.223182	-0.233214	-0.784443
28514		5.775571	1.217737	7.691983	-0.012843	0.121964	-0.036654	-0.656738	0.521729	-0.538574	0.529568	-0.221968	-0.232312	-0.785060
28515		5.696398	1.165402	7.860859	0.000366	0.116527	-0.052839	-0.661865	0.512695	-0.541016	0.529418	-0.220678	-0.231616	-0.785730
28516		5.695505	1.289456	7.874785	0.018476	0.059996	-0.055021	-0.659424	0.512451	-0.545410	0.529117	-0.219816	-0.231482	-0.786214
28517		5.621529	1.324275	7.868122	0.024710	0.011323	-0.041589	-0.658447	0.510986	-0.549805	0.528832	-0.219427	-0.231694	-0.786452
28518		5.593363	1.416533	7.815589	0.016801	-0.019438	-0.016057	-0.662109	0.513672	-0.548584	0.528691	-0.219462	-0.231962	-0.786458
28519		5.723372	1.387536	7.744026	-0.004075	-0.022543	0.014719	-0.656250	0.518311	-0.543457	0.528783	-0.219758	-0.231959	-0.786314
28520		5.752453	1.296888	7.718697	-0.022570	-0.006233	0.024592	-0.664551	0.509766	-0.548828	0.528974	-0.220047	-0.231634	-0.786201
28521		5.735905	1.224949	7.753023	-0.026195	0.010299	0.026201	-0.657227	0.530273	-0.547119	0.529207	-0.220199	-0.231170	-0.786138
28522		5.751661	1.153004	7.768604	-0.014043	0.016436	0.010228	-0.660889	0.516113	-0.544189	0.529355	-0.220168	-0.230814	-0.786151
28523		5.730198	1.209781	7.800239	-0.003748	0.016078	-0.002244	-0.660156	0.510986	-0.542480	0.529389	-0.220037	-0.230605	-0.786227
28524		5.720157	1.262816	7.785403	0.000838	0.013929	-0.002398	-0.656494	0.521484	-0.540039	0.529422	-0.219895	-0.230458	-0.786287
28525		5.674911	1.312513	7.773692	-0.007453	0.007506	0.013743	-0.662354	0.511719	-0.546875	0.529582	-0.219923	-0.230219	-0.786242
28526		5.710246	1.256117	7.794976	-0.012832	0.006903	0.023124	-0.656006	0.518555	-0.548096	0.529809	-0.220011	-0.229917	-0.786153
28527		5.674839	1.200308	7.810257	-0.011422	-0.000363	0.019373	-0.653564	0.520020	-0.547852	0.529996	-0.220149	-0.229681	-0.786057
28528		5.733635	1.174310	7.798292	-0.001542	-0.006919	0.003181	-0.656250	0.521729	-0.545898	0.530036	-0.220238	-0.229629	-0.786020
28529		5.757723	1.182192	7.764489	0.007625	-0.008884	-0.008298	-0.659668	0.512939	-0.547607	0.529977	-0.220257	-0.229710	-0.786031
28530		5.732086	1.218675	7.781826	0.011500	0.001034	-0.014471	-0.654785	0.511475	-0.538574	0.529888	-0.220131	-0.229790	-0.786103
28531		5.710948	1.252605	7.776905	0.010405	0.002735	-0.011479	-0.665039	0.529297	-0.546875	0.529826	-0.220012	-0.229834	-0.786165
28532		5.679042	1.270759	7.787935	0.004796	0.002117	-0.003873	-0.657959	0.523193	-0.545166	0.529830	-0.219963	-0.229797	-0.786187
28533		5.731879	1.256718	7.786576	0.002368	0.000362	-0.000107	-0.653320	0.519043	-0.541504	0.529863	-0.219952	-0.229741	-0.786184
28534		5.703385	1.233763	7.782914	-0.001132	0.003534	0.001420	-0.656982	0.513428	-0.542236	0.529909	-0.219937	-0.229625	-0.786191
28535		5.736502	1.200465	7.787773	0.003328	0.001735	-0.003904	-0.654541	0.516113	-0.537354	0.529900	-0.219894	-0.229587	-0.786220
28536		5.675414	1.216471	7.796079	0.005943	0.004532	-0.006159	-0.662354	0.520020	-0.548828	0.529884	-0.219805	-0.229557	-0.786265
28537		5.722118	1.233347	7.806164	0.004663	0.001662	-0.007739	-0.656494	0.513672	-0.543945	0.529847	-0.219742	-0.229541	-0.786312
28538		5.702006	1.243315	7.800513	0.005037	0.003746	-0.004714	-0.652588	0.517090	-0.546875	0.529843	-0.219664	-0.229509	-0.786346
28539		5.710645	1.228637	7.780330	0.002808	0.001114	-0.005115	-0.659424	0.510254	-0.545654	0.529835	-0.219620	-0.229470	-0.786375
28540		5.685587	1.241216	7.797213	0.003937	-0.003225	-0.005224	-0.655029	0.517578	-0.551025	0.529798	-0.219614	-0.229480	-0.786399
28541		5.719793	1.235359	7.789445	0.001939	-0.002309	-0.000781	-0.649658	0.512451	-0.544922	0.529821	-0.219620	-0.229445	-0.786391
28542		5.746271	1.228256	7.788759	0.000765	0.003056	-0.000940	-0.663330	0.510254	-0.546143	0.529852	-0.219581	-0.229364	-0.786405
28543		5.712518	1.213717	7.795722	0.000916	0.006734	-0.002315	-0.659180	0.521973	-0.546875	0.529857	-0.219509	-0.229273	-0.786449
28544		5.720605	1.224390	7.793749	0.005758	0.008632	-0.007235	-0.656250	0.520264	-0.537109	0.529850	-0.219374	-0.229214	-0.786508
28545		5.719580	1.231567	7.782129	0.004817	0.010482	-0.008679	-0.656006	0.512695	-0.551514	0.529822	-0.219234	-0.229133	-0.786590
28546		5.692567	1.223133	7.800047	0.005624	0.016849	-0.007604	-0.662842	0.518555	-0.547607	0.529838	-0.219005	-0.229033	-0.786672
28547		5.677646	1.259239	7.806971	0.003673	0.013209	-0.005957	-0.656250	0.524902	-0.550537	0.529841	-0.218844	-0.228926	-0.786746
28548		5.700304	1.249319	7.791482	0.000829	0.010394	-0.005481	-0.652344	0.521973	-0.538330	0.529853	-0.218726	-0.228799	-0.786807
28549		5.691087	1.196661	7.822891	0.005282	0.006985	-0.008183	-0.663574	0.513672	-0.541992	0.529828	-0.218617	-0.228739	-0.786872
28550		5.655148	1.254517	7.819708	0.005667	0.002006	-0.011279	-0.654053	0.521973	-0.539307	0.529737	-0.218545	-0.228744	-0.786951
28551		5.631124	1.272684	7.823613	0.002853	-0.005054	-0.005286	-0.660156	0.514893	-0.542236	0.529697	-0.218579	-0.228733	-0.786972
28552		5.698426	1.229297	7.803590	0.001038	-0.008236	0.000234	-0.652832	0.522949	-0.548584	0.529686	-0.218668	-0.228725	-0.786958
28553		5.707142	1.229369	7.825311	0.004219	-0.004232	-0.003172	-0.651367	0.518555	-0.545166	0.529689	-0.218676	-0.228720	-0.786954
28554		5.699166	1.226186	7.814786	0.003554	-0.003389	-0.002565	-0.658936	0.519043	-0.552734	0.529694	-0.218684	-0.228705	-0.786954
28555		5.686318	1.231300	7.814567	0.005924	-0.002220	-0.003985	-0.658691	0.522461	-0.541016	0.529692	-0.218655	-0.228718	-0.786959
28556		5.666483	1.235667	7.820797	0.003596	-0.005219	-0.000985	-0.659912	0.510498	-0.546387	0.529691	-0.218700	-0.228706	-0.786951
28557		5.682043	1.237323	7.806721	0.001740	-0.006570	0.002956	-0.655029	0.520996	-0.546875	0.529715	-0.218766	-0.228697	-0.786919
28558		5.697693	1.238610	7.792630	0.001744	-0.005765	0.001643	-0.659912	0.519287	-0.539062	0.529747	-0.218822	-0.228668	-0.786890
28559		5.699675	1.217174	7.790929	0.003168	-0.003553	0.000091	-0.656494	0.519531	-0.545166	0.529752	-0.218858	-0.228641	-0.786885
28560		5.683675	1.233491	7.817395	0.003175	-0.001944	-0.002533	-0.652588	0.524658	-0.549072	0.529751	-0.218857	-0.228614	-0.786893
28561		5.673580	1.246835	7.820701	0.004726	-0.005219	0.000658	-0.655273	0.518799	-0.541016	0.529794	-0.218883	-0.228608	-0.786859
28562		5.686554	1.239850	7.803034	0.002875	-0.005765	0.003287	-0.657227	0.521729	-0.551758	0.529834	-0.218944	-0.228585	-0.786822
28563		5.672000	1.235356	7.798762	0.005103	-0.006666	0.000621	-0.651123	0.513672	-0.547363	0.529867	-0.218978	-0.228603	-0.786785
28564		5.694093	1.233487	7.790468	0.006005	-0.010220	-0.002578	-0.652344	0.511475	-0.547852	0.529858	-0.219027	-0.228668	-0.786759
28565		5.689627	1.212674	7.794635	0.006480	-0.007768	-0.002951	-0.655273	0.515869	-0.556641	0.529850	-0.219047	-0.228727	-0.786741
28566		5.677831	1.243672	7.811291	0.006059	-0.004493	-0.004498	-0.658936	0.517090	-0.544678	0.529848	-0.219024	-0.228767	-0.786737
28567		5.717908	1.235638	7.780261	0.006580	-0.003066	-0.004602	-0.655029	0.523438	-0.547119	0.529826	-0.219007	-0.228792	-0.786750
28568		5.676378	1.238470	7.806354	0.005015	-0.003008	-0.002544	-0.655029	0.517090	-0.546387	0.529837	-0.219004	-0.228784	-0.786745
28569		5.692442	1.245895	7.779673	0.003595	-0.004416	-0.002303	-0.657959	0.525391	-0.541748	0.529835	-0.219021	-0.228781	-0.786742
28570		5.699702	1.241586	7.814454	0.004827	-0.004053	-0.004058	-0.658203	0.515137	-0.543945	0.529815	-0.219038	-0.228776	-0.786753
28571		5.691867	1.238136	7.803875	0.002596	-0.004759	0.001234	-0.654785	0.515625	-0.544678	0.529833	-0.219080	-0.228759	-0.786734
28572		5.705435	1.209505	7.785567	0.004585	-0.002145	-0.000155	-0.663330	0.521973	-0.545898	0.529858	-0.219075	-0.228747	-0.786722
28573		5.679550	1.243492	7.803248	0.003455	-0.001343	-0.003111	-0.653320	0.524902	-0.544922	0.529844	-0.219072	-0.228721	-0.786739
28574		5.691105	1.232277	7.798544	0.005529	-0.007529	-0.001775	-0.654297	0.519043	-0.536377	0.529853	-0.219115	-0.228740	-0.786716
28575		5.705888	1.230196	7.796851	0.007987	-0.008410	-0.002663	-0.656494	0.517090	-0.542725	0.529835	-0.219159	-0.228794	-0.786700
28576		5.687643	1.240104	7.789802	0.006336	-0.004696	-0.003766	-0.656250	0.522949	-0.542969	0.529817	-0.219163	-0.228823	-0.786703
28577		5.688364	1.241395	7.789070	0.002930	-0.003574	-0.001697	-0.656494	0.523438	-0.543945	0.529820	-0.219189	-0.228793	-0.786703
28578		5.688067	1.237226	7.801242	0.002976	-0.004598	-0.001428	-0.657471	0.519287	-0.544189	0.529824	-0.219224	-0.228771	-0.786697
28579		5.689869	1.242260	7.787833	-0.000573	-0.002812	0.003772	-0.661865	0.520752	-0.540283	0.529870	-0.219276	-0.228696	-0.786673
28580		5.707358	1.224803	7.789813	-0.001187	-0.002190	0.003338	-0.655273	0.518799	-0.551758	0.529896	-0.219337	-0.228609	-0.786663
28581		5.698059	1.215137	7.792588	0.000377	-0.001446	-0.000036	-0.665771	0.520996	-0.545898	0.529928	-0.219342	-0.228554	-0.786656
28582		5.708560	1.223488	7.818548	0.001889	-0.002087	0.000259	-0.662842	0.519775	-0.554688	0.529935	-0.219366	-0.228514	-0.786657
28583		5.696933	1.232647	7.805526	0.002927	-0.004377	-0.000386	-0.655029	0.521240	-0.550293	0.529952	-0.219384	-0.228512	-0.786641
28584		5.712072	1.207915	7.803564	0.003260	-0.003996	-0.002003	-0.652832	0.523438	-0.551270	0.529965	-0.219394	-0.228501	-0.786632
28585		5.704378	1.229929	7.810553	0.003402	-0.001925	-0.000759	-0.658203	0.523682	-0.545654	0.530006	-0.219384	-0.228470	-0.786617
28586		5.713790	1.214720	7.789934	0.005106	0.000086	-0.001577	-0.665039	0.523438	-0.537842	0.530027	-0.219357	-0.228442	-0.786618
28587		5.683888	1.235056	7.817213	0.003264	0.001148	-0.001567	-0.651123	0.522705	-0.543457	0.530017	-0.219352	-0.228384	-0.786643
28588		5.689355	1.232703	7.794212	0.002979	0.000545	-0.000993	-0.652100	0.526855	-0.545166	0.530049	-0.219333	-0.228325	-0.786644
28589		5.681081	1.227579	7.813641	0.000898	-0.000019	-0.000140	-0.662109	0.511230	-0.544189	0.530087	-0.219337	-0.228241	-0.786642
28590		5.681351	1.227695	7.813426	0.001556	-0.002468	0.001876	-0.655762	0.512695	-0.548828	0.530100	-0.219362	-0.228213	-0.786634
28591		5.706140	1.211830	7.808560	0.002359	-0.004780	-0.000551	-0.651123	0.518066	-0.544189	0.530109	-0.219384	-0.228214	-0.786622
28592		5.705460	1.208789	7.791428	0.003259	-0.003997	-0.002004	-0.658936	0.528564	-0.546631	0.530115	-0.219398	-0.228201	-0.786617
28593		5.688223	1.221632	7.801300	0.003023	-0.004019	-0.003786	-0.655518	0.515381	-0.548584	0.530101	-0.219423	-0.228177	-0.786627
28594		5.695080	1.245197	7.794854	0.004770	-0.004637	-0.001711	-0.657471	0.521484	-0.540039	0.530108	-0.219426	-0.228198	-0.786615
28595		5.710531	1.220344	7.792699	0.001505	-0.006588	0.001170	-0.652588	0.512939	-0.539795	0.530115	-0.219504	-0.228169	-0.786597
28596		5.698174	1.197787	7.804287	0.004014	-0.002547	-0.000328	-0.656006	0.523438	-0.545654	0.530127	-0.219509	-0.228157	-0.786591
28597		5.683323	1.219556	7.817812	0.005385	-0.003655	-0.003904	-0.659912	0.516602	-0.557617	0.530119	-0.219507	-0.228163	-0.786596
28598		5.704336	1.217845	7.810218	0.004109	-0.002992	-0.002416	-0.660645	0.525391	-0.546143	0.530132	-0.219483	-0.228181	-0.786588
28599		5.691443	1.222909	7.810078	0.005858	-0.002005	-0.002966	-0.660645	0.514648	-0.544434	0.530132	-0.219470	-0.228177	-0.786593
28600		5.701292	1.233710	7.806690	0.005434	-0.000337	-0.001887	-0.659180	0.520996	-0.548828	0.530130	-0.219438	-0.228176	-0.786603
28601		5.684273	1.224955	7.816277	0.003876	0.001328	-0.002450	-0.652588	0.516357	-0.544189	0.530143	-0.219396	-0.228141	-0.786617
28602		5.679198	1.235236	7.796991	0.004581	-0.002144	-0.000165	-0.656250	0.511963	-0.541992	0.530171	-0.219388	-0.228130	-0.786603
28603		5.666365	1.239067	7.796999	-0.000333	-0.001984	0.004244	-0.663574	0.522461	-0.543457	0.530210	-0.219427	-0.228066	-0.786584
28604		5.696098	1.213036	7.811497	-0.000003	-0.002406	0.003939	-0.658691	0.522217	-0.542725	0.530243	-0.219482	-0.227992	-0.786569
28605		5.700308	1.199848	7.813758	0.001934	-0.003112	0.000526	-0.657715	0.520508	-0.541504	0.530255	-0.219518	-0.227947	-0.786563
28606		5.698048	1.218549	7.797875	0.003685	-0.000522	-0.002650	-0.645264	0.520264	-0.548584	0.530246	-0.219507	-0.227914	-0.786582
28607		5.700666	1.227841	7.801285	-0.000237	-0.000825	-0.000469	-0.646973	0.522217	-0.545898	0.530294	-0.219504	-0.227841	-0.786572
28608		5.692637	1.222675	7.820581	0.002503	-0.001105	-0.001935	-0.655518	0.518799	-0.540039	0.530325	-0.219492	-0.227794	-0.786567
28609		5.690298	1.214564	7.816785	0.001038	-0.001489	-0.001959	-0.661621	0.523682	-0.546631	0.530312	-0.219510	-0.227740	-0.786587
28610		5.705646	1.221286	7.790609	0.002647	0.000967	-0.000692	-0.657227	0.512207	-0.541016	0.530328	-0.219493	-0.227685	-0.786597
28611		5.684086	1.193329	7.822438	0.002410	0.000142	-0.001162	-0.655518	0.510986	-0.554443	0.530321	-0.219480	-0.227650	-0.786615
28612		5.694814	1.208540	7.806370	0.004015	-0.000944	-0.002956	-0.659912	0.524658	-0.545654	0.530331	-0.219428	-0.227666	-0.786618
28613		5.697637	1.218293	7.809555	0.004013	-0.002547	-0.000330	-0.662842	0.531494	-0.550781	0.530346	-0.219440	-0.227641	-0.786612
28614		5.689373	1.214424	7.799374	0.002408	-0.001461	0.001464	-0.650879	0.522217	-0.544434	0.530390	-0.219458	-0.227581	-0.786595
28615		5.693285	1.201829	7.801771	0.003069	-0.001504	-0.000459	-0.654541	0.520996	-0.548340	0.530422	-0.219457	-0.227539	-0.786586
28616		5.678424	1.223063	7.815371	0.002641	-0.004178	-0.001128	-0.651123	0.521729	-0.546387	0.530437	-0.219476	-0.227524	-0.786575
28617		5.698599	1.215504	7.820638	0.002217	-0.003311	0.001264	-0.652588	0.519287	-0.546631	0.530482	-0.219499	-0.227486	-0.786549
28618		5.701973	1.203693	7.793845	0.000237	0.000825	0.000469	-0.649414	0.523438	-0.549072	0.530519	-0.219489	-0.227411	-0.786548
28619		5.674254	1.206673	7.807447	0.004204	0.000103	-0.001445	-0.655273	0.515137	-0.541504	0.530566	-0.219451	-0.227377	-0.786537
28620		5.694861	1.204559	7.800199	0.003445	-0.002149	-0.001809	-0.652344	0.516602	-0.545410	0.530554	-0.219453	-0.227363	-0.786549
28621		5.703822	1.209820	7.809655	0.003636	-0.001101	-0.000296	-0.663818	0.526611	-0.535156	0.530581	-0.219436	-0.227341	-0.786541
28622		5.680831	1.205053	7.812960	0.004441	0.000929	-0.000977	-0.650391	0.520508	-0.536377	0.530565	-0.219441	-0.227279	-0.786569
28623		5.681017	1.206573	7.812590	0.008024	-0.003493	-0.003291	-0.659668	0.511963	-0.545410	0.530556	-0.219435	-0.227298	-0.786572
28624		5.698434	1.219467	7.802028	0.016949	-0.003461	-0.003666	-0.654785	0.518555	-0.543213	0.530552	-0.219345	-0.227449	-0.786555
28625		5.695169	1.209380	7.810592	0.015250	-0.000326	-0.002413	-0.656982	0.527832	-0.549072	0.530582	-0.219248	-0.227534	-0.786537
28626		5.684027	1.198849	7.796809	0.008733	-0.001017	-0.001889	-0.655762	0.518311	-0.543945	0.530617	-0.219205	-0.227544	-0.786523
28627		5.677678	1.225852	7.820081	0.007171	-0.003699	-0.004196	-0.656250	0.517090	-0.548828	0.530596	-0.219190	-0.227579	-0.786531
28628		5.698759	1.197352	7.824540	0.002263	-0.002733	-0.001093	-0.656250	0.516846	-0.541504	0.530604	-0.219194	-0.227562	-0.786529
28629		5.693041	1.201755	7.817963	-0.001985	-0.001811	0.000087	-0.658203	0.529541	-0.543945	0.530596	-0.219238	-0.227482	-0.786546
28630		5.695897	1.210418	7.821273	0.000423	-0.001670	-0.001079	-0.652344	0.523193	-0.546143	0.530599	-0.219275	-0.227399	-0.786558
28631		5.682462	1.215353	7.792066	0.001273	-0.002266	0.001137	-0.653564	0.527832	-0.554932	0.530640	-0.219298	-0.227341	-0.786540
28632		5.688234	1.206325	7.810697	0.000845	-0.004141	-0.000844	-0.651123	0.519531	-0.536133	0.530680	-0.219322	-0.227303	-0.786518
28633		5.681156	1.207394	7.787517	0.004577	-0.002144	-0.000172	-0.650391	0.518555	-0.542969	0.530690	-0.219336	-0.227271	-0.786516
28634		5.692855	1.221215	7.800376	0.001649	-0.002912	-0.000213	-0.649902	0.529785	-0.544189	0.530708	-0.219358	-0.227232	-0.786509
28635		5.688181	1.204256	7.792945	0.002783	-0.001306	-0.001201	-0.658691	0.514648	-0.535645	0.530744	-0.219366	-0.227168	-0.786501
28636		5.684376	1.211977	7.832064	0.002499	-0.001907	-0.000626	-0.647949	0.520264	-0.545166	0.530713	-0.219392	-0.227133	-0.786525
28637		5.692046	1.213192	7.824968	0.004009	-0.003347	0.000978	-0.649414	0.524658	-0.551270	0.530763	-0.219400	-0.227116	-0.786494
28638		5.691137	1.209946	7.808021	0.002545	-0.002932	-0.000356	-0.658447	0.520020	-0.541992	0.530816	-0.219402	-0.227086	-0.786466
28639		5.699188	1.210224	7.830289	0.002545	-0.001332	-0.002984	-0.652588	0.516846	-0.553955	0.530787	-0.219407	-0.227052	-0.786495
28640		5.666736	1.196056	7.836578	0.004767	-0.001094	0.001338	-0.651855	0.523926	-0.542725	0.530853	-0.219366	-0.227057	-0.786460
28641		5.686105	1.216610	7.800591	0.004668	-0.004192	0.000367	-0.658936	0.521484	-0.548828	0.530883	-0.219391	-0.227041	-0.786437
28642		5.690615	1.203981	7.802598	0.001649	-0.004512	0.002415	-0.656006	0.521973	-0.548828	0.530913	-0.219434	-0.227015	-0.786412
28643		5.690260	1.199300	7.814972	0.003303	-0.001478	0.001318	-0.650391	0.523926	-0.549805	0.530956	-0.219430	-0.226985	-0.786393
28644		5.689136	1.195978	7.798190	0.002261	-0.002734	-0.001095	-0.657959	0.527588	-0.538086	0.530993	-0.219433	-0.226955	-0.786376
28645		5.683684	1.200764	7.791356	0.002307	-0.004558	0.000489	-0.658203	0.516357	-0.548584	0.530988	-0.219502	-0.226902	-0.786375
28646		5.678193	1.199198	7.826441	0.000560	-0.006343	0.002359	-0.653809	0.517090	-0.543945	0.531003	-0.219560	-0.226892	-0.786351
28647		5.698122	1.192232	7.802285	0.002499	-0.003507	0.002000	-0.654297	0.522705	-0.548340	0.531031	-0.219586	-0.226871	-0.786332
28648		5.700493	1.196279	7.818050	0.001410	-0.004538	0.000631	-0.662598	0.520020	-0.553223	0.531058	-0.219622	-0.226843	-0.786311
28649		5.686586	1.196757	7.801257	0.005325	-0.005039	-0.000248	-0.660889	0.527100	-0.535889	0.531068	-0.219626	-0.226882	-0.786292
28650		5.681405	1.201737	7.794196	0.001739	-0.004961	0.000325	-0.654297	0.520752	-0.548828	0.531041	-0.219709	-0.226824	-0.786304
28651		5.696519	1.176801	7.792396	0.004007	-0.002549	-0.000340	-0.656006	0.527100	-0.542969	0.531070	-0.219701	-0.226819	-0.786288
28652		5.694175	1.189870	7.818265	0.005085	-0.005066	-0.002031	-0.659180	0.524902	-0.560059	0.531066	-0.219732	-0.226816	-0.786283
28653		5.695239	1.191015	7.817316	0.004518	-0.006268	-0.000880	-0.659180	0.519287	-0.548096	0.531103	-0.219737	-0.226858	-0.786245
28654		5.681641	1.191616	7.800280	0.003293	-0.006625	0.000883	-0.652100	0.523926	-0.549316	0.531110	-0.219781	-0.226874	-0.786223
28655		5.698694	1.197100	7.802448	0.002351	-0.005582	0.000756	-0.653564	0.512939	-0.546875	0.531151	-0.219817	-0.226862	-0.786189
28656		5.681865	1.209374	7.812151	0.003769	-0.004973	0.001817	-0.661133	0.530518	-0.547852	0.531179	-0.219831	-0.226883	-0.786160
28657		5.703752	1.179801	7.816201	0.001262	-0.008212	0.002015	-0.651855	0.524414	-0.545410	0.531196	-0.219928	-0.226856	-0.786129
28658		5.690296	1.179787	7.799156	0.003485	-0.005575	0.002392	-0.651367	0.520752	-0.549561	0.531247	-0.219971	-0.226841	-0.786086
28659		5.689441	1.196995	7.811900	0.002917	-0.005978	0.002230	-0.653564	0.529053	-0.551270	0.531302	-0.220004	-0.226844	-0.786039
28660		5.708668	1.185171	7.800363	0.001170	-0.006963	0.002788	-0.657959	0.515137	-0.547363	0.531366	-0.220070	-0.226817	-0.785985
28661		5.708873	1.180394	7.812372	0.002303	-0.004559	0.000484	-0.660400	0.520508	-0.552979	0.531366	-0.220091	-0.226823	-0.785978
28662		5.708672	1.202596	7.812447	0.002019	-0.004361	-0.000254	-0.659180	0.521973	-0.546875	0.531376	-0.220106	-0.226827	-0.785966
28663		5.697354	1.184788	7.811376	0.001691	-0.004737	0.001365	-0.659912	0.520020	-0.543213	0.531387	-0.220148	-0.226806	-0.785952
28664		5.702859	1.176821	7.800522	0.003109	-0.004128	0.002426	-0.651367	0.528076	-0.550293	0.531397	-0.220186	-0.226790	-0.785940
28665		5.701573	1.194118	7.813573	0.002824	-0.003131	0.000374	-0.655762	0.517090	-0.540527	0.531457	-0.220194	-0.226762	-0.785905
28666		5.693812	1.163609	7.815236	0.003003	-0.005630	-0.001174	-0.658936	0.522461	-0.546875	0.531429	-0.220236	-0.226765	-0.785912
28667		5.708286	1.187314	7.801656	0.005081	-0.007465	0.001899	-0.657715	0.521973	-0.542725	0.531449	-0.220284	-0.226794	-0.785876
28668		5.706061	1.174442	7.809988	0.003854	-0.005425	-0.000276	-0.645996	0.528564	-0.547363	0.531440	-0.220323	-0.226795	-0.785871
28669		5.701585	1.184345	7.790215	0.002822	-0.002333	-0.000940	-0.663574	0.530273	-0.547363	0.531503	-0.220323	-0.226756	-0.785840
28670		5.679924	1.178233	7.822489	0.001449	-0.004765	-0.000417	-0.656250	0.527832	-0.545166	0.531495	-0.220377	-0.226719	-0.785840
28671		5.709515	1.180826	7.795046	0.001211	-0.006390	0.000428	-0.661133	0.526367	-0.546143	0.531508	-0.220447	-0.226687	-0.785822
28672		5.709761	1.176471	7.806978	0.003329	-0.006054	-0.001483	-0.659180	0.535156	-0.544922	0.531490	-0.220492	-0.226688	-0.785821
28673		5.701722	1.172873	7.796616	0.002820	-0.001534	-0.002255	-0.663330	0.525879	-0.544189	0.531495	-0.220511	-0.226628	-0.785830
28674		5.712728	1.181913	7.822130	0.002389	-0.005809	-0.000295	-0.656738	0.525879	-0.537842	0.531471	-0.220570	-0.226612	-0.785833
28675		5.698952	1.182535	7.805226	0.005076	-0.005868	-0.000732	-0.656006	0.524658	-0.549805	0.531455	-0.220622	-0.226607	-0.785831
28676		5.711559	1.175872	7.787607	0.003194	-0.003780	-0.000980	-0.656006	0.521729	-0.545410	0.531478	-0.220628	-0.226605	-0.785815
28677		5.717300	1.167785	7.806198	0.004938	-0.001997	-0.002855	-0.655518	0.522461	-0.545898	0.531473	-0.220606	-0.226611	-0.785823
28678		5.692153	1.181418	7.793584	0.005880	-0.003840	-0.001418	-0.655029	0.525391	-0.546631	0.531483	-0.220601	-0.226633	-0.785811
28679		5.698232	1.173287	7.811940	0.003523	-0.005002	0.000026	-0.657959	0.522461	-0.548828	0.531508	-0.220628	-0.226629	-0.785787
28680		5.697530	1.169949	7.794811	0.002015	-0.004362	-0.000258	-0.651123	0.528564	-0.536377	0.531518	-0.220650	-0.226621	-0.785777
28681		5.697441	1.166084	7.806934	0.006535	-0.004687	-0.002034	-0.641846	0.526611	-0.535156	0.531519	-0.220681	-0.226614	-0.785770
28682		5.717708	1.185844	7.799741	0.001818	-0.005415	-0.001770	-0.650146	0.518311	-0.544434	0.531537	-0.220740	-0.226565	-0.785755
28683		5.703654	1.186313	7.783060	0.002340	-0.003987	-0.001880	-0.660156	0.530029	-0.545410	0.531542	-0.220748	-0.226563	-0.785750
28684		5.708575	1.172995	7.814534	0.003104	-0.002531	-0.000208	-0.657715	0.523438	-0.542725	0.531555	-0.220770	-0.226524	-0.785746
28685		5.710179	1.178660	7.801026	0.003848	-0.004627	-0.001597	-0.656494	0.529297	-0.538330	0.531538	-0.220797	-0.226523	-0.785750
28686		5.714483	1.166526	7.803146	0.003999	-0.002550	-0.000355	-0.655273	0.523926	-0.541260	0.531541	-0.220828	-0.226477	-0.785753
28687		5.694417	1.170442	7.809874	0.003626	-0.001103	-0.000317	-0.652344	0.527100	-0.547119	0.531552	-0.220828	-0.226441	-0.785756
28688		5.713033	1.184898	7.816150	0.001878	-0.001290	-0.001068	-0.658203	0.521973	-0.548340	0.531588	-0.220824	-0.226398	-0.785745
28689		5.709011	1.172819	7.796092	0.002161	-0.000689	-0.001645	-0.653320	0.524414	-0.544434	0.531591	-0.220804	-0.226374	-0.785755
28690		5.686371	1.168076	7.799343	0.005222	-0.002994	-0.000809	-0.654297	0.524658	-0.543945	0.531615	-0.220800	-0.226375	-0.785740
28691		5.702610	1.174354	7.801919	0.005459	-0.001369	-0.001656	-0.654541	0.529785	-0.547363	0.531630	-0.220778	-0.226368	-0.785738
28692		5.728355	1.190115	7.801396	0.004649	-0.001802	-0.003598	-0.656494	0.523193	-0.542725	0.531644	-0.220761	-0.226355	-0.785737
28693		5.703008	1.176948	7.801238	0.003951	-0.000729	-0.001939	-0.651123	0.516602	-0.554199	0.531637	-0.220746	-0.226331	-0.785752
28694		5.716526	1.174062	7.800519	0.002491	-0.001910	-0.000639	-0.655518	0.527588	-0.542725	0.531686	-0.220703	-0.226348	-0.785727
28695		5.717545	1.173951	7.829438	0.004848	-0.001546	-0.000773	-0.652832	0.527100	-0.548584	0.531704	-0.220701	-0.226321	-0.785723
28696		5.710054	1.175200	7.806461	0.002533	-0.002137	-0.001683	-0.659424	0.524414	-0.542236	0.531735	-0.220696	-0.226296	-0.785711
28697		5.700442	1.166857	7.809471	0.005039	0.001102	-0.001890	-0.655029	0.524658	-0.540527	0.531724	-0.220664	-0.226266	-0.785736
28698		5.689777	1.180365	7.813160	0.002860	-0.002561	-0.001991	-0.653076	0.522217	-0.551270	0.531708	-0.220683	-0.226232	-0.785751
28699		5.705477	1.160976	7.798640	0.005017	-0.002453	-0.004951	-0.657959	0.524414	-0.549805	0.531712	-0.220638	-0.226265	-0.785752
28700		5.705715	1.162754	7.798201	0.005014	-0.001657	-0.006266	-0.648438	0.529541	-0.538330	0.531682	-0.220595	-0.226285	-0.785778
28701		5.698516	1.190476	7.792358	0.004601	-0.000779	-0.003871	-0.655518	0.526367	-0.552490	0.531689	-0.220590	-0.226240	-0.785788
28702		5.711057	1.183005	7.804548	0.003057	-0.001506	-0.000480	-0.655273	0.522217	-0.541260	0.531735	-0.220568	-0.226226	-0.785766
28703		5.701674	1.174349	7.807449	0.003910	-0.001299	0.000417	-0.657715	0.526367	-0.539307	0.531746	-0.220569	-0.226197	-0.785768
28704		5.687877	1.173910	7.820377	0.002578	-0.003161	-0.001414	-0.654541	0.519775	-0.548340	0.531720	-0.220607	-0.226154	-0.785787
28705		5.698515	1.163148	7.786644	0.004610	-0.003170	0.000072	-0.653564	0.519531	-0.544922	0.531747	-0.220592	-0.226173	-0.785767
28706		5.705761	1.159238	7.821720	0.004642	-0.001007	-0.004917	-0.656006	0.518311	-0.551270	0.531722	-0.220551	-0.226182	-0.785793
28707		5.704269	1.183536	7.792658	0.005345	-0.003675	-0.003947	-0.654053	0.528076	-0.543701	0.531711	-0.220515	-0.226235	-0.785795
28708		5.720659	1.189835	7.795097	0.003997	-0.002550	-0.000359	-0.656250	0.520752	-0.546875	0.531736	-0.220527	-0.226206	-0.785783
28709		5.698353	1.158607	7.810478	0.005501	-0.002393	-0.001392	-0.652832	0.530029	-0.543213	0.531742	-0.220504	-0.226224	-0.785780
28710		5.700542	1.169385	7.784226	0.003140	-0.001961	-0.002571	-0.657715	0.518311	-0.537109	0.531753	-0.220514	-0.226182	-0.785783
28711		5.705091	1.156791	7.815955	0.005492	-0.000800	-0.004023	-0.653564	0.524902	-0.544678	0.531689	-0.220495	-0.226176	-0.785833
28712		5.698881	1.189332	7.797105	0.005013	-0.002456	-0.004957	-0.651367	0.525879	-0.546631	0.531671	-0.220477	-0.226181	-0.785849
28713		5.706328	1.191129	7.789993	0.003384	-0.001930	-0.000790	-0.657471	0.520508	-0.537598	0.531711	-0.220470	-0.226158	-0.785830
28714		5.707545	1.190698	7.818844	0.001032	-0.003091	0.000663	-0.658447	0.524658	-0.547607	0.531681	-0.220520	-0.226105	-0.785852
28715		5.702473	1.147519	7.794482	0.002124	-0.002055	0.002026	-0.650635	0.523682	-0.542725	0.531713	-0.220532	-0.226070	-0.785837
28716		5.698222	1.156462	7.804277	0.005168	-0.001173	-0.002402	-0.655762	0.526123	-0.546387	0.531727	-0.220508	-0.226060	-0.785837
28717		5.705346	1.184634	7.785047	0.002203	-0.001714	-0.001379	-0.652588	0.520996	-0.544189	0.531737	-0.220511	-0.226025	-0.785840
28718		5.688141	1.170293	7.807473	0.001884	-0.002882	0.001559	-0.660889	0.527100	-0.538574	0.531766	-0.220529	-0.225995	-0.785823
28719		5.677024	1.126521	7.818721	0.004949	-0.006584	-0.005659	-0.651855	0.527832	-0.548340	0.531675	-0.220582	-0.226005	-0.785867
28720		5.721822	1.132389	7.806389	0.015737	-0.010834	-0.012597	-0.656738	0.525146	-0.552490	0.531616	-0.220545	-0.226196	-0.785862
28721		5.685787	1.183840	7.797031	0.014871	-0.009453	-0.016129	-0.665283	0.517090	-0.548096	0.531512	-0.220477	-0.226398	-0.785893
28722		5.695108	1.214814	7.805402	0.010821	-0.012624	-0.013839	-0.647705	0.516602	-0.542236	0.531338	-0.220482	-0.226584	-0.785956
28723		5.698843	1.226875	7.777746	0.004073	-0.009746	-0.000253	-0.657471	0.522705	-0.541992	0.531350	-0.220541	-0.226632	-0.785918
28724		5.699662	1.123420	7.767119	0.006277	-0.004720	-0.003839	-0.657471	0.527588	-0.546143	0.531312	-0.220549	-0.226658	-0.785934
28725		5.649281	1.140706	7.825937	0.017299	-0.012545	-0.023804	-0.656006	0.519531	-0.537842	0.531113	-0.220500	-0.226897	-0.786013
28726		5.704820	1.212155	7.813723	0.017197	-0.019444	-0.028895	-0.655029	0.530273	-0.547119	0.530805	-0.220515	-0.227192	-0.786131
28727		5.721104	1.214804	7.810107	0.008748	-0.019189	-0.023837	-0.651611	0.520508	-0.541992	0.530593	-0.220589	-0.227384	-0.786199
28728		5.731150	1.267128	7.817661	0.007497	-0.023847	-0.012075	-0.653076	0.521484	-0.546143	0.530459	-0.220743	-0.227576	-0.786190
28729		5.726647	1.211228	7.799956	-0.002745	-0.022707	0.003726	-0.651855	0.524658	-0.539795	0.530470	-0.220987	-0.227626	-0.786100
28730		5.721510	1.190636	7.824855	-0.001626	-0.037532	0.013430	-0.651123	0.523682	-0.539795	0.530527	-0.221421	-0.227731	-0.785908
28731		5.759319	1.195934	7.778942	0.002753	-0.047706	0.012826	-0.655518	0.519287	-0.540527	0.530566	-0.221919	-0.227955	-0.785677
28732		5.749039	1.218345	7.808690	0.003473	-0.053554	0.019022	-0.656494	0.526123	-0.540771	0.530626	-0.222476	-0.228225	-0.785400
28733		5.756301	1.240196	7.822819	0.000794	-0.078500	0.033884	-0.650146	0.526123	-0.532959	0.530770	-0.223349	-0.228577	-0.784953
28734		5.746232	1.155048	7.814928	0.007991	-0.104361	0.043836	-0.659180	0.522461	-0.535156	0.530963	-0.224469	-0.229127	-0.784343
28735		5.746709	1.139773	7.906327	0.036269	-0.166259	0.044395	-0.657959	0.522705	-0.534912	0.531026	-0.225996	-0.230385	-0.783492
28736		5.651152	1.115927	7.999529	0.093167	-0.314239	0.074999	-0.665283	0.517578	-0.529541	0.531139	-0.228670	-0.233100	-0.781835
28737		5.744600	1.086128	8.020322	0.180813	-0.461778	0.095306	-0.669434	0.523926	-0.523682	0.531216	-0.232255	-0.237595	-0.779369
28738		5.840888	0.898995	7.985534	0.288399	-0.566372	0.099160	-0.674805	0.513672	-0.528809	0.531323	-0.236159	-0.243787	-0.776204
28739		5.954101	0.004708	8.180994	0.643143	-0.572393	0.209709	-0.685547	0.520508	-0.521240	0.533508	-0.238025	-0.253168	-0.771115
28740		6.452886	-1.684810	9.133180	1.641677	-0.156194	0.572847	-0.680420	0.500977	-0.538330	0.543294	-0.230352	-0.268184	-0.761477
28741		7.043566	-3.705960	8.473115	2.681627	0.561224	1.287731	-0.649170	0.488770	-0.585938	0.564735	-0.210960	-0.285926	-0.744861
28742		10.825507	-5.789436	9.434241	2.828279	1.341002	3.227329	-0.580322	0.500000	-0.628662	0.606162	-0.189708	-0.293752	-0.714345
28743		8.478518	-4.396516	7.347228	2.662439	2.333456	4.725700	-0.483154	0.519775	-0.684814	0.661589	-0.165604	-0.287697	-0.672388
28744		6.788496	-1.711037	5.626080	2.692923	2.130721	5.180704	-0.376221	0.536377	-0.733154	0.716331	-0.143705	-0.280937	-0.622329
28745		6.770289	0.079778	6.617770	2.460448	1.755331	4.827030	-0.271973	0.533691	-0.769531	0.762607	-0.124893	-0.274678	-0.572175
28746		6.051689	1.479277	7.079503	2.156816	1.444031	3.960209	-0.199219	0.535645	-0.786865	0.797920	-0.107527	-0.269500	-0.528329
28747		5.893153	1.900200	7.448752	1.447357	1.147177	3.049466	-0.129150	0.522461	-0.802979	0.823065	-0.095753	-0.263165	-0.494105
28748		5.147064	1.680882	7.273043	0.850974	0.885949	2.264045	-0.075439	0.518799	-0.801270	0.840551	-0.088992	-0.256377	-0.468855
28749		5.047126	1.588185	7.612323	0.512867	0.625764	1.973688	-0.037354	0.519043	-0.793213	0.854390	-0.086299	-0.250439	-0.447046
28750		5.897708	0.246462	8.133086	0.821568	0.703420	1.916357	-0.000732	0.514160	-0.808594	0.867852	-0.079634	-0.245274	-0.424656
28751		6.123019	0.626156	7.303915	1.234944	0.956285	2.168810	0.046875	0.497314	-0.796143	0.883026	-0.067844	-0.239080	-0.398125
28752		5.165713	1.384364	5.849415	1.404206	0.902390	2.581641	0.104736	0.487793	-0.809082	0.899133	-0.055581	-0.233674	-0.365879
28753		5.869893	3.027273	5.455810	1.750248	0.622292	2.647500	0.148682	0.444336	-0.806885	0.913563	-0.040815	-0.232588	-0.331118
28754		6.170049	4.994438	3.761535	1.612292	0.329800	2.353841	0.182617	0.416260	-0.812500	0.924521	-0.027917	-0.234083	-0.299477
28755		6.023897	5.112715	3.547314	0.971655	-0.981269	1.028237	0.168213	0.411865	-0.830322	0.925647	-0.023420	-0.248590	-0.284311
28756		1.229961	6.199230	8.739635	0.641409	-0.952597	0.060873	0.152100	0.401123	-0.832520	0.923015	-0.019623	-0.261797	-0.281284
28757		5.711462	4.869250	8.289702	-0.146251	-1.615855	0.099364	0.120117	0.416016	-0.833008	0.917865	-0.027354	-0.279790	-0.280165
28758		8.788584	-1.393600	9.679761	-0.108940	-1.365180	-0.131358	0.077393	0.415039	-0.839111	0.912470	-0.032958	-0.295019	-0.281562
28759		10.533354	1.822224	10.035620	0.108633	-0.688258	-0.216117	0.063721	0.416504	-0.841309	0.909193	-0.033385	-0.303275	-0.283335
28760		5.480032	-1.606628	8.486326	0.151987	-0.248794	-0.261919	0.055908	0.424072	-0.837646	0.907390	-0.031590	-0.306697	-0.285628
28761		6.286781	2.833151	7.509925	0.019080	-0.050100	-0.253298	0.055176	0.418213	-0.836182	0.906314	-0.030630	-0.307383	-0.288397
28762		5.904253	1.797777	7.688539	-0.075344	0.120451	-0.087108	0.048340	0.423828	-0.838623	0.906448	-0.030760	-0.305730	-0.289714
28763		5.643627	0.949304	8.020195	-0.076506	0.160179	-0.046712	0.056641	0.428711	-0.836914	0.906875	-0.030914	-0.303607	-0.290593
28764		5.546244	1.014729	8.174860	-0.038892	0.073797	-0.070864	0.066162	0.425781	-0.842285	0.906898	-0.030863	-0.302608	-0.291567
28765		5.612984	1.341708	7.994801	-0.003209	-0.013022	-0.085067	0.064941	0.426025	-0.843750	0.906554	-0.030671	-0.302728	-0.292533
28766		5.636835	1.137778	7.962720	0.023866	-0.070734	-0.061883	0.064697	0.428223	-0.845703	0.906085	-0.030471	-0.303592	-0.293112
28767		5.540198	1.129531	7.965429	0.049799	-0.123149	-0.051838	0.054443	0.428467	-0.839111	0.905461	-0.030207	-0.305140	-0.293457
28768		5.624265	1.303858	7.826504	0.034947	-0.131246	-0.016101	0.044189	0.417725	-0.843506	0.904930	-0.030277	-0.306710	-0.293450
28769		5.464212	1.880637	7.800607	-0.014352	-0.084808	0.081299	0.045898	0.429199	-0.830811	0.904914	-0.031108	-0.307538	-0.292548
28770		5.485037	1.425882	7.863737	-0.048584	-0.054457	0.143994	0.052002	0.432617	-0.835938	0.905226	-0.032456	-0.307871	-0.291081
28771		5.561474	1.290922	7.863523	-0.027335	-0.059991	0.132696	0.049805	0.434082	-0.836426	0.905481	-0.033539	-0.308347	-0.289658
28772		5.569543	1.307856	7.851203	-0.005957	-0.086380	0.133822	0.046875	0.426025	-0.843506	0.905644	-0.034479	-0.309197	-0.288127
28773		5.562995	1.177954	7.842566	0.006746	-0.117672	0.135489	0.042480	0.433350	-0.838379	0.905693	-0.035395	-0.310445	-0.286515
28774		5.528089	1.329854	7.818241	0.011664	-0.146817	0.136421	0.040283	0.424561	-0.841309	0.905630	-0.036363	-0.312039	-0.284858
28775		5.539574	1.266981	7.830400	0.004129	-0.191882	0.160630	0.051758	0.430176	-0.843262	0.905466	-0.037670	-0.314102	-0.282936
28776		5.522913	1.131738	7.898830	0.059762	-0.231831	0.214890	0.042480	0.431152	-0.841797	0.905351	-0.038701	-0.316784	-0.280159
28777		5.555420	1.023321	7.966018	0.159415	-0.306679	0.252519	0.036133	0.429688	-0.840820	0.905101	-0.039015	-0.320637	-0.276519
28778		5.328338	1.096355	8.209070	0.244205	-0.457800	0.269252	0.024658	0.421387	-0.844482	0.904307	-0.038957	-0.326471	-0.272266
28779		5.578548	0.656641	8.213093	0.293103	-0.774388	0.269081	0.020020	0.414307	-0.849121	0.902167	-0.039420	-0.336020	-0.267640
28780		6.118861	0.809580	8.050196	0.384502	-1.109449	0.153517	-0.005615	0.414062	-0.845947	0.898128	-0.039482	-0.349654	-0.263723
28781		5.910930	0.483596	8.408926	0.577941	-1.570601	-0.020282	-0.039062	0.397461	-0.850342	0.891303	-0.038121	-0.369073	-0.260598
28782		5.549844	0.830732	8.548137	0.772416	-2.227444	-0.194667	-0.091064	0.382324	-0.840820	0.880392	-0.035905	-0.396281	-0.258036
28783		5.430379	0.619266	8.260176	0.925012	-3.104127	-0.402061	-0.157959	0.359863	-0.834229	0.863427	-0.033766	-0.433213	-0.256282
28784		6.136809	0.384896	8.264465	0.931289	-4.214694	-0.751279	-0.254883	0.342041	-0.809082	0.837333	-0.033149	-0.481273	-0.257198
28785		8.184777	0.784634	8.673407	1.255752	-5.120032	-1.101904	-0.361572	0.307861	-0.754395	0.801668	-0.029818	-0.538166	-0.258490
28786		10.318796	3.400900	8.413649	1.801366	-5.821249	-0.749370	-0.468262	0.270752	-0.691406	0.758474	-0.025508	-0.600894	-0.250982
28787		11.391346	5.368230	10.537854	3.076931	-6.163006	-0.069346	-0.558594	0.225098	-0.615967	0.710234	-0.015126	-0.666632	-0.225699
28788		12.671150	3.384660	8.854418	4.405126	-6.034496	0.869779	-0.628906	0.174316	-0.520996	0.660219	-0.000309	-0.729368	-0.179257
28789		11.760940	5.080281	6.547665	6.990831	-4.589933	1.581343	-0.649170	0.126709	-0.446533	0.618344	0.032555	-0.778625	-0.101657
28790		21.750261	17.287022	21.903192	5.478573	0.583800	3.315653	-0.603516	0.098877	-0.437744	0.624075	0.043187	-0.779851	-0.022316
28791		-3.018835	14.656389	7.545484	1.353624	2.731484	1.491612	-0.536621	0.117432	-0.445068	0.649910	0.039856	-0.758956	0.003854
28792		-0.350953	4.948919	6.870839	0.369011	1.925583	-0.738677	-0.504883	0.116455	-0.399658	0.667900	0.049674	-0.742589	0.002107
28793		4.338154	0.789592	10.135073	0.564812	3.034074	-1.421611	-0.499023	0.108398	-0.380615	0.695235	0.067382	-0.715611	-0.002858
28794		5.124774	-1.231631	9.981214	0.516068	4.616998	-0.665169	-0.522217	0.083008	-0.403809	0.734957	0.077797	-0.673636	-0.000348
28795		4.027970	-2.831332	9.268504	0.654644	5.389961	-0.436449	-0.510742	0.033203	-0.487061	0.778067	0.087272	-0.622059	0.006191
28796		6.024798	-2.419832	10.944889	0.669167	5.384027	-1.071901	-0.459961	-0.028076	-0.589111	0.817490	0.101437	-0.566901	0.006651
28797		9.995907	-3.053616	14.041887	0.011329	5.754743	-1.845013	-0.331787	-0.050293	-0.699951	0.856129	0.113811	-0.504049	-0.004985
28798		11.703195	-3.276131	14.215380	-0.717586	6.137922	-1.733110	-0.178955	-0.017578	-0.789551	0.893001	0.117027	-0.434139	-0.019408
28799		15.397289	1.248021	14.689288	-1.371948	6.215988	-0.583331	-0.004150	0.044922	-0.827881	0.925786	0.105983	-0.362075	-0.024283
28800		21.958036	4.653451	11.699174	-1.462016	6.340456	-0.005713	0.151367	0.090576	-0.808105	0.953383	0.090640	-0.286944	-0.022543
28801		25.425034	4.569373	5.232242	-0.078531	5.960293	-1.016937	0.265381	0.101562	-0.765869	0.971863	0.094732	-0.213807	-0.028171
28802		25.252712	1.788204	-2.484586	0.512708	4.763518	-3.337775	0.325195	0.103760	-0.721191	0.980240	0.111260	-0.151494	-0.061651
28803		28.379923	-6.922285	-15.328926	-0.735991	2.483640	-3.636725	0.349121	0.142578	-0.708496	0.981651	0.110839	-0.115091	-0.104069
28804		24.563112	-10.241808	-20.484604	0.697812	0.034916	-0.640078	0.341553	0.151611	-0.692871	0.979848	0.120316	-0.114586	-0.110866
28805		6.565048	5.708882	9.518256	0.339562	-2.683761	2.785031	0.304443	0.131836	-0.708984	0.978218	0.116562	-0.151916	-0.080147
28806		2.862035	15.265995	5.627083	-0.468532	-2.618842	1.274421	0.257812	0.154297	-0.726074	0.974557	0.105651	-0.185172	-0.069187
28807		11.617609	-7.470576	12.698142	-0.546954	-2.652250	0.180833	0.207520	0.173340	-0.737793	0.968749	0.096181	-0.217093	-0.071731
28808		11.497603	-0.326282	11.894394	0.793607	-2.183893	0.251185	0.165039	0.167480	-0.741455	0.961697	0.103051	-0.244423	-0.069111
28809		11.358475	7.358795	10.569192	0.198159	-1.400341	-0.225467	0.143066	0.166992	-0.739502	0.956832	0.104828	-0.261072	-0.072974
28810		6.467463	1.835640	8.505664	-0.194212	-0.843080	-0.238427	0.123291	0.173828	-0.742676	0.954071	0.102448	-0.270630	-0.077537
28811		5.544743	2.476128	8.162601	-0.201482	-0.564412	-0.076901	0.118652	0.167725	-0.744141	0.952332	0.099694	-0.277042	-0.079832
28812		5.960957	1.561659	8.344910	-0.189030	-0.363846	-0.000710	0.107422	0.183838	-0.739014	0.951307	0.097020	-0.281164	-0.080923
28813		5.522435	1.841348	8.297047	-0.039109	-0.203142	-0.059993	0.102783	0.184814	-0.745361	0.950590	0.096497	-0.283450	-0.081993
28814		4.348631	3.283326	7.666341	-0.127290	-0.261999	0.082062	0.102783	0.186768	-0.749023	0.949906	0.094361	-0.286514	-0.081756
28815		4.770110	2.553209	7.817278	-0.331679	-0.388054	0.289199	0.094238	0.193604	-0.745117	0.949190	0.088927	-0.291100	-0.079942
28816		5.385001	1.883270	8.057143	-0.353682	-0.435680	0.321277	0.091553	0.202393	-0.740967	0.948300	0.083062	-0.296247	-0.077877
28817		5.440044	2.113285	7.936643	-0.311646	-0.424232	0.306332	0.078125	0.207764	-0.746582	0.947336	0.077757	-0.301265	-0.075817
28818		5.552168	2.216040	7.829861	-0.306653	-0.432916	0.323203	0.070068	0.208496	-0.739502	0.946293	0.072434	-0.306389	-0.073543
28819		5.790564	1.867236	7.800937	-0.294040	-0.385792	0.361823	0.065186	0.218506	-0.745850	0.945398	0.067153	-0.310984	-0.070718
28820		5.572191	2.009364	7.710845	-0.280052	-0.314666	0.445299	0.062500	0.222168	-0.738770	0.944787	0.061771	-0.314803	-0.066789
28821		5.751117	1.451347	7.799734	-0.204493	-0.237051	0.516037	0.062988	0.222900	-0.742188	0.944426	0.057065	-0.317805	-0.061665
28822		5.759257	0.800568	7.928872	-0.043478	-0.237686	0.448822	0.058838	0.226074	-0.746826	0.943850	0.054524	-0.320875	-0.056693
28823		5.681802	1.219161	7.997436	0.132386	-0.390855	0.361222	0.046143	0.224609	-0.734131	0.942436	0.054296	-0.325803	-0.052148
28824		5.648479	0.827587	8.091750	0.127786	-0.671648	0.306553	0.037842	0.218018	-0.741211	0.939783	0.054050	-0.333975	-0.048453
28825		6.007998	1.065576	8.150737	0.277526	-1.011683	0.162637	0.020752	0.218262	-0.741211	0.935399	0.055950	-0.346091	-0.046045
28826		5.649199	1.168331	8.755327	0.421862	-1.578014	0.088545	-0.013184	0.207275	-0.735840	0.928145	0.059514	-0.364755	-0.044260
28827		4.871034	0.856464	9.608434	0.641287	-2.641910	0.054447	-0.059326	0.189453	-0.731445	0.915132	0.065144	-0.395566	-0.042627
28828		4.371845	-0.267037	9.572083	0.931856	-4.176653	-0.206486	-0.135986	0.175537	-0.715332	0.892328	0.074435	-0.443058	-0.043703
28829		6.135224	1.361758	10.453068	1.025719	-5.899848	-0.612679	-0.237061	0.156494	-0.676514	0.855897	0.085757	-0.507511	-0.050195
28830		10.456907	1.564256	10.812710	1.164312	-7.177542	-0.378758	-0.361816	0.133301	-0.599609	0.805434	0.095677	-0.582384	-0.054323
28831		12.940157	5.798608	12.261838	2.081384	-7.440130	0.074046	-0.448242	0.098877	-0.496582	0.745213	0.110506	-0.655920	-0.047065
28832		11.633256	4.230609	9.791025	2.404289	-7.190499	1.142109	-0.531494	0.077637	-0.378662	0.680344	0.118724	-0.722729	-0.026459
28833		9.445467	-2.215378	6.249617	5.024852	-6.021481	1.654552	-0.561523	0.034912	-0.261963	0.615804	0.143820	-0.774287	0.024109
28834		27.718133	10.599797	21.248773	6.388387	-0.698612	4.288551	-0.551758	0.053955	-0.205322	0.593514	0.150965	-0.781766	0.117441
28835		6.186870	16.227055	10.674818	2.065262	4.017605	4.306619	-0.548828	0.094727	-0.200439	0.620839	0.117834	-0.754612	0.176734
28836		-2.114496	7.165806	4.041048	-0.573112	3.678102	3.270375	-0.574951	0.135498	-0.199219	0.648082	0.074174	-0.730611	0.201729
28837		2.007450	4.933021	5.455460	0.639700	3.386336	0.961649	-0.625000	0.140381	-0.199463	0.675476	0.061929	-0.701619	0.218236
28838		4.936604	9.436807	7.079101	0.287761	4.106700	-0.658475	-0.688721	0.107178	-0.276123	0.712278	0.058816	-0.664583	0.218016
28839		5.419376	5.452159	6.392066	-0.717865	4.801702	-1.503437	-0.724365	0.066162	-0.418701	0.755477	0.051689	-0.621216	0.201677
28840		6.156532	2.424719	7.174646	-0.030101	5.086572	-2.445620	-0.697021	-0.033447	-0.582520	0.799393	0.057418	-0.569997	0.181046
28841		8.555785	3.024765	9.074723	0.415908	5.329884	-3.036878	-0.589355	-0.127197	-0.730713	0.841680	0.070950	-0.511794	0.156871
28842		11.235865	2.806479	10.897650	0.377294	5.594412	-3.298095	-0.451416	-0.229736	-0.866943	0.880904	0.084787	-0.447428	0.128947
28843		15.390446	4.316899	13.936117	0.305191	5.911876	-3.588700	-0.187988	-0.264160	-0.961426	0.916196	0.098346	-0.376209	0.096847
28844		22.814046	5.260651	14.593094	0.026972	6.359063	-4.073814	0.047363	-0.226074	-0.943115	0.946955	0.109654	-0.296527	0.057646
28845		28.166603	5.326710	8.835642	-0.136048	6.583659	-4.437957	0.222900	-0.162598	-0.901367	0.970107	0.119052	-0.211066	0.013040
28846		28.354899	-4.481272	-2.315536	0.598642	5.459504	-4.506453	0.353516	-0.132080	-0.846680	0.980544	0.136513	-0.137208	-0.032724
28847		37.463264	-8.880757	-19.322560	0.991929	3.037754	-4.144695	0.425537	-0.110596	-0.819092	0.980252	0.156408	-0.093019	-0.077396
28848		21.617786	-9.829054	-31.211934	-0.633028	-1.654349	-0.631390	0.395752	-0.099609	-0.837891	0.978688	0.147669	-0.111349	-0.089245
28849		10.156184	10.031100	19.108009	-1.671684	-3.318057	1.477257	0.313232	-0.064941	-0.863770	0.977574	0.121102	-0.152658	-0.079865
28850		9.433353	-5.643741	10.431354	-1.187470	-3.951998	0.076949	0.224121	-0.035400	-0.881348	0.970616	0.102324	-0.199628	-0.087085
28851		12.214612	-8.314612	12.841491	0.531325	-3.005834	0.623355	0.157471	-0.038574	-0.887207	0.962389	0.103820	-0.237294	-0.081972
28852		14.531759	10.811994	11.618660	0.121410	-2.083156	0.162451	0.111816	-0.048340	-0.896973	0.955904	0.102556	-0.262601	-0.082287
28853		8.139119	3.184289	8.841856	-0.667136	-1.080919	0.324776	0.085449	-0.036621	-0.898438	0.953422	0.092334	-0.275220	-0.081944
28854		5.407358	1.878293	8.265783	-0.709187	-0.731898	0.515780	0.066162	-0.013184	-0.894775	0.952157	0.081290	-0.283798	-0.079047
28855		5.878478	0.540792	8.574567	-0.549747	-0.621659	0.425857	0.060791	-0.008545	-0.899414	0.950868	0.072557	-0.291082	-0.076530
28856		6.038364	1.462518	8.261250	-0.390961	-0.566490	0.273391	0.043457	-0.002197	-0.900391	0.949384	0.066307	-0.297692	-0.075184
28857		5.750463	1.995674	7.855614	-0.323486	-0.433997	0.291790	0.036621	0.013672	-0.899170	0.948285	0.060909	-0.302787	-0.073253
28858		5.911331	1.503422	7.897713	-0.314433	-0.316351	0.332341	0.021973	0.024170	-0.900146	0.947609	0.055569	-0.306512	-0.070714
28859		5.855208	1.240973	7.925971	-0.217256	-0.207646	0.264945	0.020020	0.026611	-0.902588	0.947186	0.051733	-0.308977	-0.068524
28860		5.842718	1.414601	7.785594	-0.159732	-0.175601	0.269670	0.013184	0.031494	-0.897217	0.946832	0.048585	-0.311108	-0.066034
28861		5.693536	1.238018	7.800168	-0.118871	-0.164231	0.299963	0.006836	0.039551	-0.888184	0.946502	0.045811	-0.313151	-0.063018
28862		5.786826	1.273581	7.819870	-0.071781	-0.217303	0.320641	0.012695	0.037354	-0.891113	0.945932	0.043470	-0.315864	-0.059602
28863		5.609420	1.047356	7.929702	-0.005122	-0.304930	0.307186	0.007568	0.031250	-0.892334	0.944944	0.041904	-0.319646	-0.056128
28864		5.727229	0.709999	7.957111	0.057174	-0.477158	0.246224	-0.018066	0.034912	-0.896484	0.943157	0.041194	-0.325462	-0.053214
28865		5.719061	0.930136	8.023422	0.135213	-0.684775	0.177655	-0.024658	0.037354	-0.897461	0.940380	0.041542	-0.333721	-0.050893
28866		6.033602	0.966800	8.027647	0.211821	-0.967483	0.134577	-0.050781	0.031738	-0.895752	0.936245	0.042786	-0.345288	-0.048900
28867		5.904197	1.413553	8.208029	0.291289	-1.389938	0.154917	-0.076416	0.023438	-0.887451	0.930034	0.044602	-0.361775	-0.046539
28868		5.496155	0.365964	8.782239	0.393667	-2.054058	0.138241	-0.138428	0.008057	-0.879883	0.920287	0.047277	-0.385846	-0.044257
28869		4.580998	-0.881995	9.757404	0.834936	-3.308705	-0.236261	-0.193848	-0.007568	-0.854492	0.902870	0.056077	-0.423875	-0.044838
28870		4.658923	1.358311	10.224750	0.957137	-5.275678	-0.649233	-0.321045	-0.024902	-0.821289	0.871855	0.067156	-0.482486	-0.050656
28871		7.760451	2.190435	10.879981	0.681730	-6.898575	-0.481777	-0.454834	-0.051514	-0.747803	0.826154	0.072794	-0.555771	-0.057363
28872		14.648043	4.342808	11.797600	1.119158	-7.745381	0.121533	-0.585205	-0.069580	-0.629150	0.767577	0.077529	-0.633861	-0.055094
28873		11.629966	7.280254	10.853553	1.608853	-7.337510	1.267149	-0.703369	-0.064941	-0.500000	0.705406	0.077455	-0.703583	-0.037075
28874		8.210001	4.159909	4.450953	2.649383	-6.799725	2.146470	-0.779053	-0.054443	-0.352539	0.641001	0.078372	-0.763527	-0.001342
28875		24.707006	4.235867	19.357955	6.330085	-3.526535	2.556736	-0.816162	-0.044434	-0.281738	0.598368	0.104169	-0.790782	0.075948
28876		10.827449	20.245007	15.931254	3.218538	3.659662	2.562215	-0.778564	-0.011719	-0.355225	0.626599	0.099143	-0.761756	0.131419
28877		-2.808488	11.938026	4.428545	-1.052174	4.071934	1.548565	-0.734863	0.049561	-0.436523	0.663291	0.069283	-0.732209	0.138258
28878		0.236024	5.224820	4.570227	-1.163221	3.102245	-0.532343	-0.691162	0.064941	-0.495605	0.693191	0.059052	-0.707261	0.125621
28879		5.582870	4.827177	7.507471	-0.459498	3.744316	-1.721934	-0.632812	0.062744	-0.561279	0.728563	0.064299	-0.673173	0.109082
28880		6.328635	4.036618	7.278728	-0.748425	5.101831	-1.681159	-0.558594	0.058105	-0.631348	0.772853	0.064500	-0.624680	0.091168
28881		5.732019	2.072940	6.607303	-0.376275	5.700991	-1.491671	-0.467529	0.054688	-0.706543	0.817396	0.065825	-0.566963	0.078004
28882		8.718946	4.274991	8.732721	0.125044	5.960919	-2.005927	-0.357178	0.025391	-0.774170	0.859078	0.075287	-0.502355	0.062900
28883		11.645970	6.812269	10.388597	-0.317585	6.237709	-3.085160	-0.242920	0.008057	-0.832275	0.897799	0.086048	-0.430634	0.033267
28884		16.379414	9.349163	12.199663	-1.084618	6.294714	-4.300398	-0.093750	0.000977	-0.861328	0.930533	0.094008	-0.353645	-0.014326
28885		25.384779	11.336523	11.266095	-2.039835	6.547371	-5.309860	0.040283	0.036133	-0.864502	0.955470	0.094396	-0.268658	-0.077391
28886		27.829895	10.044523	1.552295	-2.414656	6.214271	-5.176882	0.166260	0.090332	-0.861816	0.968860	0.088481	-0.184357	-0.139624
28887		26.813934	2.105511	-8.503729	-0.353427	4.070163	-5.543504	0.245361	0.115234	-0.848145	0.965361	0.103789	-0.127459	-0.202631
28888		34.029393	1.118735	-17.341326	-0.892633	0.684341	-6.112715	0.244629	0.166016	-0.849365	0.949211	0.104226	-0.108467	-0.276353
28889		25.080700	-12.605501	-21.831062	-0.193631	-2.310295	-2.920495	0.171875	0.174561	-0.851562	0.935203	0.097837	-0.131198	-0.314023
28890		3.876230	4.530257	16.859009	-0.121554	-3.573070	-0.308152	0.103271	0.185791	-0.858154	0.927347	0.082802	-0.171960	-0.321872
28891		10.125578	0.152000	10.706309	0.064535	-4.196800	0.247203	0.013916	0.183594	-0.851807	0.917979	0.066025	-0.220854	-0.322768
28892		11.557021	-6.120969	12.358674	0.992908	-3.283499	0.556702	-0.055176	0.166748	-0.844482	0.909481	0.062556	-0.262781	-0.316034
28893		16.678008	12.664191	12.159346	-0.262203	-1.657449	0.355013	-0.095703	0.169434	-0.843018	0.905447	0.051803	-0.280820	-0.314041
28894		6.775147	3.679673	8.390594	-0.499585	-0.732965	0.311736	-0.097412	0.185547	-0.840332	0.904361	0.042142	-0.287381	-0.312677
28895		6.184284	2.929435	8.377903	-0.468385	-0.545227	0.324577	-0.117920	0.196777	-0.825928	0.903874	0.033516	-0.291920	-0.310921
28896		5.507034	2.923595	8.093721	-0.425873	-0.422048	0.400683	-0.122314	0.208008	-0.838623	0.904031	0.025569	-0.295241	-0.308071
28897		5.386666	2.585885	8.134861	-0.414059	-0.373612	0.464186	-0.123535	0.214600	-0.825928	0.904531	0.017707	-0.298057	-0.304422
28898		5.260705	2.128777	7.693582	-0.440125	-0.319532	0.516959	-0.131592	0.228760	-0.830322	0.905360	0.009557	-0.300150	-0.300236
28899		5.524712	1.587848	7.734338	-0.434524	-0.255266	0.482912	-0.130859	0.241455	-0.817383	0.906226	0.001838	-0.301508	-0.296385
28900		5.711241	1.383152	7.830999	-0.363146	-0.171000	0.394135	-0.138184	0.250488	-0.825684	0.907021	-0.004427	-0.302155	-0.293250
28901		5.539903	1.472262	7.840363	-0.303086	-0.096848	0.318926	-0.137451	0.262207	-0.812256	0.907786	-0.009457	-0.302175	-0.290732
28902		5.543418	1.406020	7.913261	-0.294962	-0.081806	0.298074	-0.131348	0.269775	-0.815186	0.908505	-0.014262	-0.302047	-0.288414
28903		5.536434	1.173492	8.067078	-0.253843	-0.087221	0.247112	-0.131592	0.276123	-0.809082	0.909004	-0.018427	-0.302130	-0.286513
28904		5.652453	1.143844	8.055210	-0.176455	-0.115470	0.182269	-0.139160	0.270264	-0.809082	0.909166	-0.021570	-0.302822	-0.285044
28905		5.609837	1.376659	7.902814	-0.114027	-0.144181	0.144470	-0.132568	0.278076	-0.811035	0.909093	-0.023963	-0.304068	-0.283759
28906		5.534371	1.288873	7.795139	-0.119244	-0.121803	0.160220	-0.136230	0.282959	-0.809570	0.909150	-0.026396	-0.305034	-0.282319
28907		5.439486	1.011051	8.022635	-0.089263	-0.131036	0.130454	-0.137451	0.283691	-0.806152	0.909069	-0.028407	-0.306219	-0.281098
28908		5.370904	1.178329	8.134034	-0.034395	-0.238130	0.133037	-0.142578	0.291748	-0.805176	0.908599	-0.030181	-0.308808	-0.279598
28909		5.019211	1.075888	8.534174	0.031626	-0.441009	0.137483	-0.151123	0.282227	-0.802490	0.907364	-0.031931	-0.313921	-0.277711
28910		5.291080	0.354995	9.120582	0.227568	-0.976725	0.099468	-0.166260	0.284912	-0.801025	0.903887	-0.033166	-0.325772	-0.275248
28911		4.932058	0.378962	10.164095	0.635655	-1.973981	-0.097244	-0.216553	0.276123	-0.781494	0.895465	-0.032407	-0.350232	-0.272818
28912		3.728076	0.586077	10.791792	0.855795	-3.579709	-0.276494	-0.279297	0.253174	-0.767090	0.878242	-0.033829	-0.392976	-0.270402
28913		4.149232	1.929991	11.492619	0.731313	-5.585595	-0.320383	-0.392578	0.229736	-0.717041	0.847864	-0.043055	-0.455889	-0.267279
28914		8.408947	7.370861	12.289754	-0.128805	-7.043542	0.664881	-0.513184	0.238037	-0.633545	0.806611	-0.071574	-0.527868	-0.256146
28915		12.387409	9.216034	11.276765	-0.935897	-7.131337	2.191515	-0.607666	0.291016	-0.509033	0.762236	-0.117951	-0.592364	-0.232785
28916		9.635706	9.176097	8.411689	-1.513167	-6.713944	3.461482	-0.665283	0.367188	-0.384766	0.716903	-0.176923	-0.643960	-0.200159
28917		9.850482	7.480837	9.110692	-1.790124	-5.927984	3.856535	-0.687500	0.450684	-0.271240	0.671972	-0.238040	-0.681289	-0.166239
28918		21.122671	10.996802	20.403934	-0.312917	-0.663042	0.849263	-0.689209	0.469482	-0.261719	0.667124	-0.249267	-0.683540	-0.159950
28919		-0.971045	10.340291	7.455623	-1.857292	1.771897	0.570805	-0.679932	0.506104	-0.274658	0.677327	-0.265945	-0.662773	-0.176730
28920		1.795436	8.068762	5.440450	-2.898818	1.518817	0.463965	-0.661377	0.534424	-0.271484	0.680801	-0.290719	-0.641245	-0.201982
28921		3.871690	11.923870	5.495301	-3.092418	2.305880	-1.108920	-0.650146	0.539062	-0.271973	0.684470	-0.301915	-0.616858	-0.244611
28922		4.848206	12.782194	3.745635	-4.258425	2.913088	-1.683384	-0.665527	0.552002	-0.273193	0.684214	-0.315690	-0.583649	-0.302563
28923		7.217316	12.159044	3.691943	-4.359263	3.706982	-2.098494	-0.667969	0.546387	-0.284424	0.684193	-0.322620	-0.541834	-0.366351
28924		9.578166	14.480337	3.139423	-4.169430	4.682065	-2.315582	-0.662109	0.547119	-0.315918	0.686132	-0.319890	-0.489928	-0.432278
28925		11.690574	16.751598	2.086223	-3.988635	5.603716	-2.764591	-0.658691	0.537109	-0.378174	0.686620	-0.305343	-0.429063	-0.501223
28926		13.427442	18.448811	1.501887	-3.522714	6.040725	-3.543408	-0.634521	0.510742	-0.445557	0.680053	-0.277055	-0.366426	-0.571402
28927		17.746467	20.937293	2.780354	-3.398112	6.036205	-4.468118	-0.602051	0.482666	-0.512451	0.660377	-0.240648	-0.304218	-0.642995
28928		21.980864	18.819310	2.098838	-2.731184	5.896196	-5.448925	-0.560303	0.425049	-0.582764	0.627046	-0.193455	-0.248160	-0.712605
28929		23.684396	17.897669	0.314442	-1.392451	5.054587	-6.290302	-0.525391	0.351562	-0.632568	0.580021	-0.138522	-0.209953	-0.774795
28930		25.198454	16.252540	-2.205989	-0.941486	3.799667	-6.927253	-0.513428	0.271973	-0.661377	0.518416	-0.089359	-0.184188	-0.830262
28931		26.526498	6.109861	-8.337382	-0.661599	1.689701	-7.552161	-0.513672	0.178467	-0.688232	0.440809	-0.057950	-0.173924	-0.878681
28932		32.655373	-2.548750	-18.851952	-1.891297	-0.959706	-6.203172	-0.552734	0.116943	-0.663818	0.367810	-0.064864	-0.162381	-0.913313
28933		23.471696	2.038782	-12.752982	-1.062236	-3.472563	-3.927200	-0.613525	0.072754	-0.601074	0.314311	-0.100975	-0.169110	-0.928663
28934		10.657685	-0.768194	7.483900	-2.119860	-5.765324	-4.101380	-0.701172	0.033203	-0.502930	0.250633	-0.166817	-0.171721	-0.938012
28935		16.800940	-20.799976	17.551988	-1.225075	-4.716102	-1.463383	-0.754883	0.019043	-0.421387	0.220345	-0.222242	-0.174941	-0.933516
28936		22.772989	2.040044	14.562881	-0.092243	-1.762346	0.608471	-0.777100	0.038574	-0.383545	0.223295	-0.244196	-0.176999	-0.926919
28937		5.873699	4.256984	9.166818	-0.277978	-0.598954	0.101957	-0.769043	0.037842	-0.374023	0.222317	-0.252038	-0.175149	-0.925405
28938		5.138561	4.403681	7.760806	-0.425308	-0.518466	0.343368	-0.779541	0.050049	-0.363037	0.223826	-0.259866	-0.170600	-0.923725
28939		5.992158	2.503555	7.967382	-0.451198	-0.474709	0.390539	-0.777832	0.067139	-0.349365	0.225868	-0.267340	-0.165467	-0.922027
28940		6.201130	1.930931	8.182513	-0.339421	-0.401971	0.361180	-0.778564	0.073975	-0.341797	0.228078	-0.273581	-0.161501	-0.920354
28941		6.094147	1.294675	7.802692	-0.237970	-0.368426	0.321751	-0.787354	0.079102	-0.342773	0.230236	-0.279058	-0.158731	-0.918653
28942		5.753482	1.568992	7.595575	-0.246454	-0.352912	0.267312	-0.792725	0.092529	-0.321777	0.231759	-0.284265	-0.155996	-0.917141
28943		5.827125	1.195711	7.708892	-0.225861	-0.341162	0.216417	-0.795410	0.091064	-0.323975	0.232785	-0.289171	-0.153636	-0.915744
28944		6.023587	1.066365	7.738989	-0.163064	-0.336997	0.146611	-0.804932	0.094238	-0.312744	0.233240	-0.293708	-0.152226	-0.914419
28945		6.095072	1.359026	7.643549	-0.128628	-0.355644	0.022773	-0.805420	0.110107	-0.305664	0.232363	-0.298117	-0.151710	-0.913300
28946		5.966701	2.038072	7.581158	-0.166793	-0.346624	0.115024	-0.795654	0.109131	-0.297363	0.232409	-0.302706	-0.150381	-0.911998
28947		6.174168	1.402713	7.539532	-0.153358	-0.339160	0.262561	-0.803467	0.115723	-0.294189	0.234194	-0.307440	-0.148621	-0.910245
28948		6.294051	1.096237	7.453428	-0.123631	-0.405518	0.219442	-0.805420	0.129639	-0.284668	0.235471	-0.312754	-0.147552	-0.908277
28949		6.430317	1.342129	7.448832	-0.082195	-0.463116	0.203383	-0.809082	0.129639	-0.269531	0.236611	-0.318562	-0.147176	-0.906020
28950		6.426929	1.512372	7.207243	-0.079836	-0.476587	0.260311	-0.815674	0.128906	-0.268311	0.238370	-0.324608	-0.146632	-0.903498
28951		6.357329	0.487205	7.420258	-0.056824	-0.509526	0.234625	-0.815674	0.134521	-0.255371	0.239859	-0.330897	-0.146541	-0.900833
28952		6.196731	0.766242	7.593539	-0.008182	-0.669094	0.110311	-0.822510	0.151367	-0.235596	0.239842	-0.338591	-0.147978	-0.897738
28953		6.286374	0.758481	7.641339	0.036997	-0.949304	0.093873	-0.821045	0.139404	-0.223633	0.239287	-0.349229	-0.150812	-0.893329
28954		6.335209	0.861072	7.682299	0.080311	-1.306612	0.076559	-0.832520	0.154053	-0.188477	0.238003	-0.363623	-0.155239	-0.887149
28955		6.238492	1.392678	7.993806	0.076951	-1.838727	0.143967	-0.843018	0.141357	-0.145020	0.236322	-0.383912	-0.160840	-0.878006
28956		6.243843	2.123342	8.265418	0.053583	-2.670494	0.418140	-0.839844	0.151367	-0.089111	0.235666	-0.413623	-0.167189	-0.863380
28957		6.424156	2.452352	8.112138	-0.143347	-3.695692	0.788112	-0.845947	0.176270	-0.004395	0.235441	-0.455042	-0.172236	-0.841332
28958		7.714260	2.781962	8.748811	-0.487032	-4.876541	1.153096	-0.837646	0.196045	0.111328	0.233825	-0.509244	-0.174536	-0.809650
28959		11.905527	4.257327	9.935718	-1.124796	-5.797071	1.798364	-0.809814	0.230469	0.244629	0.231509	-0.573480	-0.168107	-0.767636
28960		12.833462	3.859077	10.369563	-1.436359	-5.885928	2.481683	-0.749023	0.270752	0.369385	0.231858	-0.637266	-0.152999	-0.718836
28961		13.429042	7.128461	9.805112	-1.238448	-6.034323	3.173267	-0.660645	0.315430	0.491455	0.238057	-0.698599	-0.133517	-0.661409
28962		11.737733	7.747881	7.288757	-1.310745	-5.819598	3.580162	-0.551758	0.361816	0.601318	0.245546	-0.753791	-0.108263	-0.599821
28963		24.663590	11.681316	18.177737	-0.016456	-1.997778	0.355364	-0.521240	0.346924	0.623047	0.245215	-0.768964	-0.110910	-0.579881
28964		7.420332	8.289699	11.216601	-0.807380	1.502098	-0.476700	-0.547607	0.327881	0.613525	0.235958	-0.759567	-0.105060	-0.596946
28965		1.556234	4.349225	6.844906	-0.813498	1.817252	-0.140555	-0.571289	0.313232	0.597900	0.229434	-0.747825	-0.094998	-0.615706
28966		3.976021	7.696502	7.508410	-1.008328	2.442242	-0.289758	-0.607178	0.292725	0.563477	0.220495	-0.730988	-0.082959	-0.640435
28967		4.672885	8.654551	6.828397	-1.937613	3.779586	-0.858034	-0.678467	0.246582	0.518799	0.199474	-0.703917	-0.064833	-0.678607
28968		5.032043	7.125321	5.188375	-2.263896	4.794501	-1.440085	-0.747314	0.171631	0.440674	0.170730	-0.665858	-0.046293	-0.724804
28969		6.991805	5.779857	5.255030	-1.680045	5.545433	-1.817816	-0.809326	0.103271	0.322998	0.142983	-0.616015	-0.034336	-0.773888
28970		9.352729	5.859838	5.927721	-0.774018	6.234797	-1.984092	-0.843506	0.039307	0.169678	0.120020	-0.553923	-0.030967	-0.823290
28971		11.673955	6.102169	6.606218	0.123089	6.648562	-2.091818	-0.833984	-0.019287	0.013916	0.101471	-0.482179	-0.036723	-0.869401
28972		15.803852	8.089854	9.506226	0.963985	6.786498	-2.668359	-0.795166	-0.059570	-0.117432	0.080992	-0.403719	-0.054605	-0.909654
28973		22.784890	10.350953	11.033379	1.201750	6.916667	-3.948021	-0.756348	-0.100098	-0.225830	0.046538	-0.318911	-0.080986	-0.943171
28974		28.200378	10.288157	8.131371	0.789899	6.341627	-5.318372	-0.768311	-0.129395	-0.362549	-0.006733	-0.236386	-0.107445	-0.965677
28975		29.930008	-0.468035	-0.254661	0.602480	4.553401	-5.933369	-0.775146	-0.207275	-0.540283	-0.070304	-0.172249	-0.132245	-0.973601
28976		38.547966	-2.931247	-6.597757	0.656966	2.634137	-7.178512	-0.718018	-0.370850	-0.694092	-0.151411	-0.127928	-0.157458	-0.967427
28977		32.018309	-17.120826	-32.012279	-1.272357	-0.028529	-2.946943	-0.704102	-0.430420	-0.781250	-0.188963	-0.119814	-0.146682	-0.963547
28978		14.862531	-1.010351	10.120146	-2.319344	-4.112937	0.662978	-0.835449	-0.383789	-0.777100	-0.191621	-0.164799	-0.107842	-0.961506
28979		4.010617	-7.207074	7.966381	-1.475784	-3.768112	0.512105	-0.960205	-0.357910	-0.764404	-0.193311	-0.206990	-0.079915	-0.955719
28980		12.412503	-5.292139	12.698177	-0.143090	-3.353398	0.487962	-1.062744	-0.339844	-0.735107	-0.191012	-0.246974	-0.068763	-0.947518
28981		14.391893	5.082293	12.591514	0.448049	-2.879257	0.048636	-1.149658	-0.346680	-0.682861	-0.191387	-0.282007	-0.066962	-0.937741
28982		11.819995	5.170667	8.388788	-0.926023	-1.287908	0.360338	-1.178955	-0.316650	-0.670654	-0.191456	-0.295139	-0.051703	-0.934647
28983		6.055104	2.186834	8.238684	-0.802166	-0.579317	0.571998	-1.199463	-0.300537	-0.661377	-0.188081	-0.300349	-0.038792	-0.934297
28984		6.379119	-0.118834	8.691643	-0.636220	-0.343877	0.498838	-1.220947	-0.270996	-0.659668	-0.184794	-0.303115	-0.028639	-0.934426
28985		6.063799	0.714542	8.310181	-0.305753	-0.230375	0.236902	-1.221680	-0.258545	-0.665771	-0.183260	-0.305201	-0.023593	-0.934190
28986		5.748680	1.989694	7.823996	-0.200465	-0.206769	0.177828	-1.237305	-0.253662	-0.660645	-0.182002	-0.307228	-0.020052	-0.933854
28987		5.667811	2.193841	7.592857	-0.229791	-0.186574	0.271950	-1.240234	-0.234863	-0.656006	-0.179751	-0.308968	-0.015853	-0.933797
28988		5.673022	1.462669	7.840590	-0.231358	-0.179404	0.299273	-1.245361	-0.225098	-0.649658	-0.177181	-0.310619	-0.011547	-0.933804
28989		5.781139	0.986067	7.941480	-0.173176	-0.187296	0.212122	-1.253174	-0.212891	-0.649414	-0.175400	-0.312471	-0.008242	-0.933557
28990		5.860786	1.189534	7.755790	-0.130340	-0.124023	0.162767	-1.252197	-0.210205	-0.653076	-0.174019	-0.313668	-0.005766	-0.933433
28991		5.609326	1.396571	7.837936	-0.128657	-0.099150	0.210887	-1.250244	-0.197021	-0.649658	-0.172067	-0.314579	-0.003175	-0.933500
28992		5.716782	0.995979	7.827782	-0.097890	-0.124482	0.225333	-1.263672	-0.195312	-0.641846	-0.169824	-0.315847	-0.000832	-0.933488
28993		5.696353	1.139900	7.689761	-0.076552	-0.118922	0.217384	-1.259277	-0.189941	-0.643555	-0.167588	-0.317092	0.001220	-0.933470
28994		5.652938	1.066480	7.743877	-0.053455	-0.120282	0.212839	-1.263916	-0.174316	-0.645508	-0.165312	-0.318397	0.002987	-0.933427
28995		5.602600	0.974758	7.958541	-0.008570	-0.183855	0.208718	-1.278564	-0.170654	-0.648193	-0.162902	-0.320532	0.004345	-0.933115
28996		5.104883	0.959160	8.385980	0.038957	-0.396479	0.219285	-1.285400	-0.168945	-0.633057	-0.160162	-0.325235	0.005625	-0.931954
28997		5.712001	0.724703	8.534634	0.151696	-0.884003	0.215283	-1.302490	-0.159424	-0.612549	-0.156964	-0.335812	0.006550	-0.928735
28998		5.721086	0.796546	8.637647	0.253883	-1.445502	0.198755	-1.313965	-0.163818	-0.561768	-0.153445	-0.353027	0.007321	-0.922916
28999		5.624139	1.208581	8.926538	0.369981	-2.201909	0.246799	-1.335449	-0.153320	-0.498291	-0.148705	-0.378979	0.008411	-0.913340
29000		5.218417	1.119782	9.175490	0.527064	-3.266553	0.356989	-1.370117	-0.148193	-0.393799	-0.141665	-0.416877	0.010198	-0.897798
29001		4.806054	0.318302	8.982267	0.618202	-4.644113	0.340750	-1.407715	-0.138184	-0.251465	-0.133794	-0.469289	0.013289	-0.872749
29002		7.277289	1.382519	10.171457	0.395078	-6.271035	0.162080	-1.423096	-0.123779	-0.039307	-0.128270	-0.536798	0.020418	-0.833653
29003		11.915015	2.702062	10.848918	0.421053	-7.414748	0.383014	-1.398193	-0.110840	0.180420	-0.119038	-0.612182	0.030433	-0.781113
29004		13.639538	5.202163	12.117957	0.764204	-7.306566	1.222249	-1.322021	-0.059814	0.384277	-0.098019	-0.681397	0.043087	-0.724040
29005		10.364944	8.313808	8.467890	1.047702	-7.180598	2.477310	-1.211426	0.009766	0.547852	-0.062455	-0.743050	0.063300	-0.663301
29006		19.458491	0.864896	13.651799	3.028490	-5.764449	2.933068	-1.084473	0.137207	0.635254	-0.005343	-0.787804	0.069674	-0.611949
29007		17.156361	13.908151	19.553793	4.035598	0.794081	1.872404	-1.014404	0.210693	0.510254	0.047932	-0.779029	0.057070	-0.622542
29008		-1.401186	8.753654	7.115371	1.522483	2.771169	2.021449	-0.929932	0.233154	0.396729	0.076349	-0.754136	0.066431	-0.648874
29009		1.848486	4.951580	7.122678	0.844202	2.471229	1.481866	-0.860840	0.245361	0.345947	0.094112	-0.731392	0.075765	-0.671170
29010		4.379701	5.917598	9.321524	1.059417	3.575125	-0.189867	-0.836670	0.228271	0.315430	0.098611	-0.699388	0.069151	-0.704521
29011		4.669519	4.979785	8.892423	0.440057	4.644738	-1.552089	-0.887207	0.203125	0.242432	0.084497	-0.657796	0.057170	-0.746255
29012		5.150426	1.082194	8.818134	0.252567	5.106359	-2.656331	-0.940430	0.157959	0.085693	0.057853	-0.609897	0.038079	-0.789448
29013		9.045003	-0.224860	10.743971	0.579183	5.653336	-3.368926	-0.914062	0.101807	-0.120117	0.026088	-0.553003	0.010513	-0.832704
29014		11.120809	-1.014501	11.569763	0.765522	6.406094	-3.481123	-0.806396	0.047363	-0.258545	-0.005831	-0.483986	-0.019586	-0.874837
29015		13.800146	-0.011257	13.432172	0.835157	6.735725	-3.262997	-0.753174	-0.009033	-0.336426	-0.034794	-0.407202	-0.048963	-0.911361
29016		21.080430	2.659437	15.421255	0.771965	7.228820	-3.361498	-0.695068	-0.074219	-0.449463	-0.064544	-0.320852	-0.077845	-0.941716
29017		25.902225	4.857468	10.947607	0.282762	7.375021	-3.640183	-0.611572	-0.133057	-0.526123	-0.098695	-0.228809	-0.101381	-0.963134
29018		28.589960	-2.682288	-3.060169	-0.200296	5.437230	-3.028562	-0.570068	-0.206055	-0.572021	-0.128504	-0.158311	-0.114120	-0.972317
29019		29.798663	-3.985422	-6.599529	2.179594	3.694126	-4.110938	-0.542725	-0.326172	-0.607178	-0.168478	-0.110416	-0.154398	-0.967256
29020		31.688158	-12.254376	-29.851949	-0.496706	0.171880	-2.425843	-0.546631	-0.372314	-0.623291	-0.198049	-0.102420	-0.152073	-0.962892
29021		12.223174	1.253533	7.049324	-1.651701	-4.350218	1.468653	-0.648682	-0.329346	-0.560303	-0.190363	-0.153247	-0.119294	-0.962313
29022		8.140693	2.162670	8.436025	-1.596665	-4.251573	0.524384	-0.732910	-0.298584	-0.505615	-0.193117	-0.201117	-0.088785	-0.956229
29023		12.737055	-11.775760	13.574092	-0.236496	-3.281267	0.509233	-0.798828	-0.293213	-0.433594	-0.191082	-0.240184	-0.076674	-0.948641
29024		14.187875	7.365343	12.580897	0.856991	-2.599472	0.065404	-0.836914	-0.301758	-0.362061	-0.190090	-0.273021	-0.080314	-0.939614
29025		10.882193	5.082573	8.532484	-0.622065	-1.331926	0.114805	-0.857422	-0.291992	-0.335693	-0.192149	-0.287328	-0.069373	-0.935793
29026		6.017655	2.527648	8.176324	-0.567450	-0.701329	0.358231	-0.865967	-0.279785	-0.325684	-0.190573	-0.294548	-0.059696	-0.934537
29027		6.113441	0.996804	8.401651	-0.393654	-0.538565	0.293321	-0.878418	-0.274170	-0.317627	-0.188973	-0.300200	-0.052669	-0.933486
29028		5.935599	1.407513	8.192722	-0.227458	-0.451881	0.128276	-0.889404	-0.259521	-0.309570	-0.188606	-0.305104	-0.048397	-0.932200
29029		5.640989	2.670626	7.754365	-0.219909	-0.392818	0.186007	-0.892822	-0.260254	-0.300293	-0.187495	-0.309360	-0.044127	-0.931233
29030		5.522700	2.900472	7.422333	-0.341719	-0.278536	0.401094	-0.898926	-0.245117	-0.301758	-0.184281	-0.312105	-0.037875	-0.931234
29031		5.649005	1.984373	7.652242	-0.464174	-0.166717	0.556068	-0.905273	-0.229492	-0.298828	-0.179677	-0.313317	-0.029851	-0.932018
29032		5.958609	0.663716	7.986927	-0.311046	-0.093647	0.395798	-0.905518	-0.211182	-0.296631	-0.176303	-0.313940	-0.024400	-0.932611
29033		5.790804	1.172309	7.925932	-0.152034	-0.116969	0.239467	-0.907959	-0.208496	-0.294434	-0.174131	-0.315129	-0.021360	-0.932693
29034		5.645985	1.573188	7.843794	-0.102357	-0.156988	0.229729	-0.921143	-0.198242	-0.299072	-0.171884	-0.316883	-0.018848	-0.932569
29035		5.860900	1.355194	7.760654	-0.083722	-0.210522	0.277610	-0.921875	-0.189941	-0.292236	-0.169016	-0.319307	-0.016248	-0.932316
29036		5.792872	1.258198	7.748185	-0.010940	-0.271414	0.274712	-0.927734	-0.197266	-0.283203	-0.165900	-0.322585	-0.014379	-0.931778
29037		5.480496	1.438966	7.934652	0.023038	-0.401410	0.326207	-0.927002	-0.184814	-0.270264	-0.162065	-0.327444	-0.012426	-0.930785
29038		5.611000	1.171335	7.892496	0.076676	-0.589919	0.321009	-0.937012	-0.174561	-0.268311	-0.158092	-0.334583	-0.010736	-0.928949
29039		5.959739	1.108669	7.984229	0.153003	-0.857595	0.280908	-0.939453	-0.173096	-0.230957	-0.154285	-0.344938	-0.009569	-0.925809
29040		5.854860	1.370075	8.305946	0.240985	-1.298244	0.285617	-0.962158	-0.162598	-0.207764	-0.150064	-0.360487	-0.008547	-0.920574
29041		5.723550	0.758270	8.669101	0.314080	-1.912858	0.261760	-0.972168	-0.169434	-0.150879	-0.145787	-0.383076	-0.007317	-0.912110
29042		5.218252	0.955620	9.204826	0.435354	-2.880720	0.203265	-0.990479	-0.173584	-0.076660	-0.141543	-0.416531	-0.005978	-0.898015
29043		4.557830	0.135842	9.521501	0.805830	-4.411712	0.045919	-1.011475	-0.168701	0.038330	-0.136706	-0.466854	-0.006916	-0.873676
29044		6.442442	0.537762	10.947819	0.870185	-6.407759	-0.342948	-1.007568	-0.192383	0.211426	-0.135242	-0.536717	-0.007413	-0.832820
29045		11.676613	1.573825	11.385039	1.173844	-7.954313	-0.425714	-0.975830	-0.201416	0.423340	-0.131674	-0.618620	-0.008979	-0.774526
29046		14.334290	7.835805	14.375827	1.449757	-8.200223	0.711976	-0.901367	-0.179688	0.624512	-0.113805	-0.696940	-0.003897	-0.708031
29047		12.319485	8.799435	11.068830	2.038857	-7.805843	2.230953	-0.803467	-0.116943	0.795654	-0.076149	-0.765045	0.008652	-0.639400
29048		21.826393	1.896737	17.671239	5.459140	-5.485745	2.557811	-0.731934	0.034424	0.896973	-0.002695	-0.809694	-0.005292	-0.586822
29049		15.408362	19.230328	21.604480	4.571429	2.306759	2.609813	-0.801270	0.163818	0.823730	0.062755	-0.790912	-0.012460	-0.608576
29050		-2.081752	10.465937	7.636317	0.621470	4.280967	3.095813	-0.918945	0.248047	0.724854	0.092853	-0.756437	0.016720	-0.647226
