// Start Time: Unknown
// Update Rate: 40.0Hz
// Filter Profile: human (46.1)
// Firmware Version: 4.6.0
PacketCounter	SampleTimeFine	Acc_X	Acc_Y	Acc_Z	Gyr_X	Gyr_Y	Gyr_Z	Mag_X	Mag_Y	Mag_Z	Quat_q0	Quat_q1	Quat_q2	Quat_q3
28137		5.501568	-0.360281	8.003576	-0.004119	-0.008586	0.004206	-0.667236	0.351807	-0.292480	0.327145	-0.285069	-0.083336	-0.897088
28138		5.510815	-0.374125	7.994459	-0.001164	-0.007369	0.003710	-0.669189	0.347412	-0.293457	0.327175	-0.285161	-0.083340	-0.897048
28139		5.514489	-0.356487	8.013918	-0.002041	-0.007184	0.002719	-0.663818	0.346191	-0.289307	0.327186	-0.285251	-0.083341	-0.897015
28140		5.497099	-0.359477	7.998227	-0.002662	-0.006646	0.003980	-0.672852	0.355957	-0.290039	0.327214	-0.285341	-0.083324	-0.896977
28141		5.520174	-0.370770	8.022912	-0.001263	-0.007318	0.001928	-0.666748	0.347656	-0.289551	0.327224	-0.285430	-0.083333	-0.896945
28142		5.508700	-0.364194	7.998492	-0.000380	-0.007022	0.000715	-0.675049	0.347900	-0.296143	0.327223	-0.285511	-0.083355	-0.896917
28143		5.524772	-0.358887	7.991035	0.000448	-0.007181	0.000815	-0.668457	0.349609	-0.292480	0.327227	-0.285591	-0.083386	-0.896888
28144		5.517252	-0.355197	7.987916	0.002675	-0.005855	0.001998	-0.676270	0.351074	-0.289551	0.327252	-0.285650	-0.083433	-0.896855
28145		5.503622	-0.360850	7.993678	-0.001205	-0.004705	0.003752	-0.675781	0.347412	-0.295898	0.327284	-0.285716	-0.083428	-0.896823
28146		5.517961	-0.346802	8.006261	-0.002184	-0.004470	0.000980	-0.669678	0.362305	-0.297119	0.327282	-0.285779	-0.083422	-0.896804
28147		5.521329	-0.347336	7.996066	0.000089	-0.005808	0.002122	-0.681396	0.347900	-0.287598	0.327301	-0.285847	-0.083443	-0.896774
28148		5.517757	-0.366178	7.984307	-0.001308	-0.005135	0.004175	-0.670166	0.347656	-0.300049	0.327330	-0.285919	-0.083446	-0.896739
28149		5.501573	-0.372145	7.999675	-0.000889	-0.003415	0.002486	-0.667480	0.348389	-0.292725	0.327349	-0.285961	-0.083453	-0.896719
28150		5.509376	-0.354670	8.000606	-0.002186	-0.004951	0.003185	-0.671631	0.351807	-0.292480	0.327372	-0.286029	-0.083442	-0.896690
28151		5.511246	-0.364745	7.980394	-0.001299	-0.002016	0.002903	-0.671875	0.353271	-0.294189	0.327397	-0.286058	-0.083431	-0.896672
28152		5.510928	-0.368458	8.020322	-0.000056	-0.000936	0.003518	-0.671143	0.345703	-0.285645	0.327436	-0.286070	-0.083427	-0.896654
28153		5.510595	-0.356517	7.999685	-0.000472	-0.002176	0.003002	-0.670898	0.348877	-0.297852	0.327455	-0.286106	-0.083426	-0.896636
28154		5.507497	-0.366335	7.998615	-0.000266	-0.002277	0.006567	-0.675049	0.348389	-0.291504	0.327525	-0.286118	-0.083419	-0.896608
28155		5.508150	-0.367136	7.998129	-0.001253	-0.004680	0.002862	-0.668213	0.355957	-0.286621	0.327536	-0.286173	-0.083422	-0.896585
28156		5.522468	-0.353176	8.010730	-0.001924	-0.004116	0.003232	-0.679443	0.355713	-0.293213	0.327575	-0.286236	-0.083393	-0.896554
28157		5.513662	-0.371996	8.018279	-0.001142	-0.001612	0.003372	-0.665283	0.346924	-0.290771	0.327605	-0.286256	-0.083379	-0.896538
28158		5.493273	-0.353132	8.002729	-0.001606	-0.000668	0.005102	-0.668701	0.344971	-0.290527	0.327656	-0.286255	-0.083350	-0.896523
28159		5.506453	-0.379587	7.995967	-0.001143	-0.002093	0.005577	-0.676514	0.355713	-0.291260	0.327695	-0.286267	-0.083339	-0.896505
28160		5.523701	-0.356962	8.009712	-0.004451	-0.000973	0.002977	-0.656738	0.341553	-0.287598	0.327715	-0.286291	-0.083277	-0.896496
28161		5.508097	-0.372459	8.005779	0.000721	-0.001552	0.004930	-0.680420	0.353760	-0.287842	0.327768	-0.286285	-0.083281	-0.896478
28162		5.506059	-0.373022	8.015017	-0.002125	-0.001856	0.002805	-0.677002	0.355469	-0.285156	0.327765	-0.286333	-0.083257	-0.896466
28163		5.497786	-0.369947	8.012408	0.000768	-0.003735	0.002685	-0.668457	0.348145	-0.290283	0.327784	-0.286401	-0.083258	-0.896437
28164		5.505001	-0.373757	8.023576	-0.000163	-0.004005	0.003008	-0.671387	0.344971	-0.289551	0.327807	-0.286421	-0.083265	-0.896422
28165		5.502761	-0.361736	8.012123	-0.000834	-0.003441	0.003379	-0.671387	0.348389	-0.295654	0.327799	-0.286442	-0.083276	-0.896417
28166		5.498839	-0.380531	8.000576	-0.000319	-0.004410	0.002540	-0.662842	0.360107	-0.290039	0.327818	-0.286427	-0.083297	-0.896413
28167		5.519048	-0.357484	8.004447	-0.002078	-0.004520	0.002765	-0.667725	0.347412	-0.286621	0.327950	-0.286462	-0.083225	-0.896360
28168		5.496070	-0.360069	8.008368	-0.001706	-0.000617	0.003321	-0.674561	0.351807	-0.288086	0.327954	-0.286475	-0.083199	-0.896357
28169		5.496305	-0.360853	8.008172	-0.001243	-0.002042	0.003796	-0.666504	0.347900	-0.293213	0.327969	-0.286509	-0.083180	-0.896343
28170		5.491532	-0.383014	8.036958	-0.001556	-0.002851	0.002858	-0.669678	0.359619	-0.294434	0.327998	-0.286476	-0.083176	-0.896343
28171		5.509688	-0.356717	8.010355	-0.000885	-0.003415	0.002488	-0.667725	0.354980	-0.290527	0.328128	-0.286457	-0.083132	-0.896305
28172		5.497577	-0.384560	8.016992	-0.002024	-0.004546	0.003656	-0.666260	0.356201	-0.293213	0.328217	-0.286484	-0.083091	-0.896268
28173		5.503488	-0.363937	7.987353	-0.000519	-0.002632	0.004317	-0.665771	0.351807	-0.291260	0.328356	-0.286450	-0.083049	-0.896232
28174		5.499467	-0.364158	8.005852	0.000614	-0.004140	0.002216	-0.668701	0.355713	-0.287354	0.328414	-0.286442	-0.083054	-0.896213
28175		5.509040	-0.367897	8.007526	0.000718	-0.003710	0.001793	-0.666260	0.354736	-0.295166	0.328488	-0.286488	-0.083041	-0.896172
28176		5.500964	-0.364862	8.004791	-0.003626	-0.003769	0.002147	-0.667725	0.348877	-0.290283	0.328582	-0.286446	-0.082991	-0.896156
28177		5.513287	-0.347919	7.986873	-0.002329	-0.002716	0.003652	-0.672607	0.355957	-0.283691	0.328579	-0.286445	-0.082975	-0.896159
28178		5.499715	-0.367112	8.013422	-0.004651	-0.002313	0.006031	-0.676758	0.348633	-0.293701	0.328642	-0.286570	-0.082887	-0.896104
28179		5.504508	-0.368849	7.994296	-0.002991	0.000486	0.004955	-0.666748	0.354492	-0.297363	0.328589	-0.286518	-0.082886	-0.896140
28180		5.496000	-0.378393	8.012692	0.000888	0.002452	0.001922	-0.667236	0.355225	-0.291504	0.328715	-0.286347	-0.082875	-0.896149
28181		5.488422	-0.396461	8.011537	0.001766	0.002747	0.000707	-0.665771	0.355957	-0.288086	0.328811	-0.286258	-0.082861	-0.896144
28182		5.487178	-0.365449	8.021565	0.000426	0.003877	0.001448	-0.665771	0.346436	-0.287354	0.328924	-0.286211	-0.082805	-0.896123
28183		5.458837	-0.367076	8.044979	0.000359	-0.001855	0.000897	-0.664062	0.358154	-0.291504	0.328834	-0.286220	-0.082835	-0.896150
28184		5.480666	-0.383598	8.019677	0.001797	-0.005675	0.001005	-0.668457	0.353027	-0.293457	0.329021	-0.286212	-0.082822	-0.896085
28185		5.516347	-0.385399	8.007354	0.002008	-0.005296	0.002366	-0.665039	0.350586	-0.293701	0.329082	-0.286175	-0.082857	-0.896071
28186		5.490192	-0.343811	8.009727	0.000101	-0.003172	0.003056	-0.665527	0.353027	-0.298096	0.329130	-0.286100	-0.082866	-0.896077
28187		5.487683	-0.365983	8.029080	-0.001806	-0.001047	0.003745	-0.667725	0.341064	-0.293457	0.329253	-0.285941	-0.082841	-0.896085
28188		5.483133	-0.385231	8.017912	-0.001699	-0.001099	0.005528	-0.669678	0.346191	-0.287354	0.329055	-0.285850	-0.082885	-0.896182
28189		5.476973	-0.364018	8.035993	-0.000361	-0.001747	0.002581	-0.669678	0.350586	-0.294434	0.328895	-0.285889	-0.082913	-0.896226
28190		5.475537	-0.361075	8.005061	0.000309	-0.002312	0.002211	-0.663818	0.351074	-0.295410	0.328894	-0.285809	-0.082945	-0.896249
28191		5.487178	-0.365132	7.997415	-0.000779	-0.002985	0.002066	-0.672119	0.349609	-0.291748	0.328995	-0.285693	-0.082954	-0.896248
28192		5.492460	-0.347253	8.008023	0.000206	-0.002742	0.002633	-0.660156	0.347412	-0.290283	0.328909	-0.285684	-0.082990	-0.896279
28193		5.484745	-0.356631	8.025890	-0.000357	-0.002229	0.004787	-0.671143	0.354736	-0.290527	0.328969	-0.285629	-0.082990	-0.896275
28194		5.479533	-0.366356	8.034141	-0.002074	-0.004519	0.002767	-0.668701	0.354004	-0.288574	0.329006	-0.285682	-0.082965	-0.896247
28195		5.486619	-0.358316	8.024534	-0.002182	-0.008070	0.004463	-0.667725	0.347656	-0.296631	0.329060	-0.285797	-0.082940	-0.896192
28196		5.498998	-0.363131	8.016339	-0.002950	-0.004814	0.003984	-0.677490	0.353516	-0.292236	0.329028	-0.285691	-0.082973	-0.896235
28197		5.482897	-0.369335	8.031709	-0.001034	-0.004302	0.004226	-0.669434	0.353271	-0.297852	0.328957	-0.285737	-0.082990	-0.896245
28198		5.486126	-0.370199	8.021568	-0.001348	-0.005110	0.003288	-0.664551	0.350830	-0.296143	0.329058	-0.285628	-0.083015	-0.896240
28199		5.485749	-0.380135	8.010713	-0.002693	-0.003498	0.001825	-0.672119	0.351807	-0.293945	0.329142	-0.285505	-0.083021	-0.896248
28200		5.502011	-0.366400	8.014122	-0.001698	-0.000617	0.003324	-0.667725	0.356445	-0.288818	0.329117	-0.285444	-0.083023	-0.896276
28201		5.479066	-0.368887	8.018077	-0.000308	-0.004894	0.004746	-0.668457	0.355713	-0.291748	0.329265	-0.285519	-0.082984	-0.896202
28202		5.498802	-0.367694	8.032049	-0.002071	-0.004519	0.002768	-0.670898	0.349121	-0.298096	0.329375	-0.285534	-0.082953	-0.896159
28203		5.495819	-0.365122	8.010033	-0.002129	-0.007614	0.003150	-0.667969	0.356689	-0.293945	0.329312	-0.285452	-0.083018	-0.896203
28204		5.486936	-0.371525	7.996774	-0.001912	-0.004115	0.003238	-0.668457	0.347412	-0.296387	0.329482	-0.285419	-0.082987	-0.896153
28205		5.498270	-0.379260	8.029114	-0.001494	-0.002877	0.003753	-0.661865	0.351562	-0.290283	0.329403	-0.285299	-0.083036	-0.896216
28206		5.481450	-0.372657	8.024174	-0.000573	-0.005246	0.002495	-0.661865	0.348389	-0.290771	0.329497	-0.285299	-0.083034	-0.896182
28207		5.492404	-0.367418	8.035963	0.000618	-0.004142	0.002216	-0.662109	0.355957	-0.297119	0.329499	-0.285261	-0.083067	-0.896190
28208		5.492804	-0.386204	8.005587	-0.001239	-0.001560	0.001593	-0.668945	0.360596	-0.292236	0.329781	-0.285090	-0.083047	-0.896142
28209		5.462332	-0.375393	8.017620	0.000564	-0.004116	0.001324	-0.666992	0.355957	-0.296143	0.330026	-0.285105	-0.083023	-0.896050
28210		5.473299	-0.369720	8.029421	0.001903	-0.005247	0.000581	-0.668945	0.349609	-0.295654	0.330177	-0.285020	-0.083063	-0.896018
28211		5.486986	-0.364078	8.031454	0.001019	-0.008180	0.000866	-0.671631	0.351318	-0.290527	0.330078	-0.284981	-0.083150	-0.896058
28212		5.484492	-0.360743	8.009131	-0.000013	-0.008879	0.001614	-0.674561	0.355469	-0.287598	0.329957	-0.285084	-0.083201	-0.896065
28213		5.490129	-0.364471	8.029288	-0.000728	-0.005650	0.002027	-0.668213	0.349854	-0.295410	0.329903	-0.285241	-0.083199	-0.896035
28214		5.484742	-0.361382	8.016840	-0.000727	-0.005650	0.002027	-0.666504	0.353760	-0.286133	0.329855	-0.285175	-0.083251	-0.896069
28215		5.492420	-0.365172	8.027689	-0.000113	-0.006189	0.000764	-0.665771	0.359131	-0.295166	0.329861	-0.285304	-0.083244	-0.896026
28216		5.489315	-0.362155	8.005762	-0.002278	-0.004897	0.001411	-0.665039	0.360352	-0.299316	0.330123	-0.285246	-0.083203	-0.895952
28217		5.495596	-0.375515	8.006448	-0.001497	-0.005515	0.002822	-0.670166	0.348633	-0.295410	0.330473	-0.285108	-0.083174	-0.895870
28218		5.487924	-0.353941	8.033600	-0.000205	-0.003981	0.002119	-0.673096	0.340576	-0.291504	0.330330	-0.285036	-0.083238	-0.895940
28219		5.478020	-0.347498	8.000203	-0.000195	-0.004464	0.004326	-0.670654	0.349121	-0.296875	0.329887	-0.285052	-0.083344	-0.896088
28220		5.502404	-0.380707	8.025737	-0.002891	-0.004357	0.002675	-0.668457	0.347900	-0.287842	0.329793	-0.284969	-0.083385	-0.896145
28221		5.494537	-0.377839	8.022891	-0.000510	-0.005273	0.003388	-0.675781	0.352295	-0.290283	0.329630	-0.285059	-0.083413	-0.896174
28222		5.478730	-0.380633	7.998256	-0.002314	-0.002715	0.003659	-0.669678	0.349854	-0.293457	0.329485	-0.285135	-0.083405	-0.896204
28223		5.488294	-0.366370	8.030017	0.001042	-0.002905	0.002731	-0.675049	0.353760	-0.289307	0.329432	-0.285083	-0.083461	-0.896234
28224		5.486277	-0.354217	8.018446	-0.001914	-0.006753	0.002309	-0.673096	0.348145	-0.297607	0.329314	-0.285220	-0.083459	-0.896234
28225		5.493829	-0.376985	7.999209	-0.002582	-0.006187	0.002681	-0.673828	0.348633	-0.290527	0.329195	-0.285151	-0.083533	-0.896293
28226		5.494134	-0.368516	8.018000	-0.001130	-0.007372	0.003720	-0.668213	0.352539	-0.290527	0.329010	-0.285242	-0.083582	-0.896328
28227		5.486565	-0.365482	8.014966	-0.000564	-0.005246	0.002497	-0.662354	0.353271	-0.296875	0.329030	-0.285276	-0.083589	-0.896309
28228		5.495834	-0.357473	7.995907	-0.003453	-0.006482	0.003901	-0.666260	0.352051	-0.294678	0.329273	-0.285172	-0.083585	-0.896253
28229		5.490021	-0.358427	8.023622	-0.003601	-0.004248	0.004365	-0.665527	0.356445	-0.288330	0.329374	-0.285113	-0.083572	-0.896236
28230		5.491759	-0.372167	8.043237	-0.002567	-0.006671	0.004889	-0.671631	0.352539	-0.290039	0.329529	-0.285214	-0.083509	-0.896153
28231		5.493563	-0.370302	8.002022	-0.004015	-0.008608	0.005125	-0.671387	0.350342	-0.285889	0.329477	-0.285334	-0.083491	-0.896135
28232		5.475108	-0.364039	8.006179	-0.000708	-0.006134	0.004235	-0.674561	0.343994	-0.293213	0.329333	-0.285482	-0.083499	-0.896140
28233		5.481821	-0.377533	8.006536	-0.002530	-0.008852	0.002643	-0.666992	0.350098	-0.290283	0.329042	-0.285520	-0.083602	-0.896226
28234		5.494696	-0.382375	7.997904	-0.004386	-0.009389	0.003298	-0.667480	0.355225	-0.285400	0.329020	-0.285595	-0.083603	-0.896210
28235		5.515828	-0.359862	8.001132	-0.001123	-0.007373	0.003722	-0.671143	0.357178	-0.292969	0.329063	-0.285747	-0.083561	-0.896149
28236		5.506020	-0.357134	8.007566	-0.003128	-0.005675	0.004841	-0.670654	0.352051	-0.287842	0.329178	-0.285768	-0.083520	-0.896105
28237		5.490704	-0.394381	8.013171	-0.001790	-0.006807	0.004095	-0.670654	0.357178	-0.291016	0.329118	-0.285874	-0.083517	-0.896093
28238		5.480768	-0.391230	8.019720	-0.000515	-0.004790	0.001183	-0.674561	0.358398	-0.287354	0.329184	-0.285901	-0.083505	-0.896061
28239		5.494836	-0.364271	8.011716	0.000721	-0.006353	0.000860	-0.660156	0.349365	-0.287354	0.329157	-0.286037	-0.083492	-0.896029
28240		5.508503	-0.358674	8.013725	0.002377	-0.006677	0.001051	-0.671143	0.343018	-0.287842	0.329222	-0.286045	-0.083554	-0.895997
28241		5.510537	-0.371161	8.033203	-0.000148	-0.006648	0.002080	-0.677979	0.350098	-0.288330	0.328951	-0.286106	-0.083656	-0.896067
28242		5.491682	-0.382750	8.007469	-0.002004	-0.007184	0.002736	-0.668701	0.357910	-0.294189	0.328716	-0.286235	-0.083690	-0.896109
28243		5.504489	-0.368729	8.029120	-0.001075	-0.006916	0.002408	-0.663330	0.355225	-0.294434	0.328889	-0.286210	-0.083682	-0.896054
28244		5.476902	-0.376691	8.001203	-0.001334	-0.007750	0.002363	-0.669189	0.353027	-0.293213	0.329112	-0.286148	-0.083695	-0.895991
28245		5.516590	-0.373457	8.028941	-0.001501	-0.010792	0.000963	-0.669922	0.346436	-0.294678	0.329138	-0.286174	-0.083743	-0.895969
28246		5.504082	-0.376147	7.994088	-0.002418	-0.008422	0.002224	-0.668213	0.351807	-0.290527	0.329046	-0.286135	-0.083829	-0.896007
28247		5.512706	-0.358637	7.994534	-0.000085	-0.006675	0.002973	-0.673096	0.353516	-0.290527	0.329072	-0.286150	-0.083863	-0.895989
28248		5.490088	-0.382602	8.008176	-0.002099	-0.007615	0.003162	-0.673096	0.353271	-0.292969	0.329037	-0.286219	-0.083871	-0.895979
28249		5.505962	-0.378437	8.000634	-0.002898	-0.005299	0.006207	-0.670410	0.353271	-0.297607	0.329061	-0.286221	-0.083864	-0.895970
28250		5.497273	-0.366586	8.017501	-0.001479	-0.005516	0.002829	-0.668457	0.347168	-0.286133	0.329151	-0.286118	-0.083906	-0.895966
28251		5.499800	-0.389061	8.017498	-0.000741	-0.003471	0.004279	-0.672607	0.351318	-0.291992	0.329043	-0.286167	-0.083929	-0.895989
28252		5.494630	-0.367888	8.035173	-0.002724	-0.006591	0.002221	-0.673096	0.351562	-0.285400	0.328980	-0.286189	-0.083952	-0.896002
28253		5.490112	-0.374514	8.002979	-0.002086	-0.004977	0.004095	-0.666016	0.342285	-0.293457	0.328865	-0.286310	-0.083933	-0.896007
28254		5.497674	-0.379084	8.013867	-0.002185	-0.005408	0.004519	-0.666016	0.358154	-0.296631	0.328809	-0.286222	-0.084024	-0.896048
28255		5.487736	-0.376488	8.020441	-0.003271	-0.006079	0.004380	-0.669434	0.355469	-0.289062	0.329087	-0.286141	-0.083996	-0.895974
28256		5.497288	-0.402346	8.031739	0.002183	-0.007541	0.001895	-0.665283	0.356201	-0.291260	0.329144	-0.286195	-0.084029	-0.895933
28257		5.494967	-0.377166	7.999521	0.000628	-0.006785	0.001284	-0.673096	0.349854	-0.285889	0.329303	-0.286185	-0.084046	-0.895876
28258		5.506911	-0.371731	8.010647	0.001049	-0.011308	0.002140	-0.671387	0.353027	-0.288574	0.329145	-0.286345	-0.084112	-0.895877
28259		5.506932	-0.371906	8.018591	-0.000704	-0.011413	0.002376	-0.672119	0.356445	-0.290771	0.329110	-0.286462	-0.084145	-0.895849
28260		5.505367	-0.381305	8.016447	0.000014	-0.008884	0.001619	-0.676758	0.349609	-0.291260	0.329151	-0.286520	-0.084167	-0.895813
28261		5.492573	-0.386730	8.021851	0.000683	-0.009450	0.001245	-0.662842	0.352783	-0.293945	0.328992	-0.286579	-0.084259	-0.895844
28262		5.502017	-0.368542	8.021775	0.000196	-0.013298	-0.001091	-0.679443	0.352783	-0.285400	0.329129	-0.286565	-0.084342	-0.895791
28263		5.523754	-0.363673	7.994237	-0.001314	-0.013512	0.002713	-0.675293	0.357910	-0.291992	0.328940	-0.286796	-0.084375	-0.895783
28264		5.529775	-0.355212	7.993264	-0.002472	-0.011033	0.000408	-0.671631	0.347900	-0.289795	0.328950	-0.286879	-0.084380	-0.895752
28265		5.502246	-0.384555	7.975073	0.000172	-0.011119	0.001157	-0.673584	0.352295	-0.284424	0.328847	-0.286938	-0.084473	-0.895762
28266		5.511306	-0.369831	8.015336	0.000120	-0.008454	0.001197	-0.675781	0.344238	-0.299316	0.328740	-0.287076	-0.084498	-0.895755
28267		5.525997	-0.373935	7.997390	0.000031	-0.006246	0.002552	-0.662354	0.351562	-0.294189	0.328650	-0.286937	-0.084645	-0.895819
28268		5.501553	-0.375777	8.010670	0.000130	-0.005816	0.002129	-0.676514	0.357178	-0.287842	0.328841	-0.286825	-0.084697	-0.895780
28269		5.517928	-0.349104	7.993017	0.000921	-0.006436	0.003537	-0.670166	0.353027	-0.289307	0.328841	-0.286914	-0.084696	-0.895751
28270		5.514273	-0.371215	8.021219	-0.001857	-0.007239	0.004531	-0.669434	0.346680	-0.295410	0.328886	-0.286955	-0.084694	-0.895722
28271		5.493152	-0.382950	8.005021	-0.001250	-0.007779	0.003264	-0.668213	0.353271	-0.293213	0.328887	-0.286879	-0.084779	-0.895738
28272		5.519112	-0.391113	7.979433	-0.000171	-0.009746	0.002470	-0.676025	0.346680	-0.298340	0.328987	-0.286868	-0.084828	-0.895700
28273		5.513418	-0.378456	7.986397	0.001211	-0.007783	0.001335	-0.662354	0.352295	-0.277588	0.328898	-0.286774	-0.084962	-0.895750
28274		5.517723	-0.360110	8.005838	0.000322	-0.007593	0.000351	-0.674561	0.354004	-0.294922	0.328899	-0.286943	-0.084943	-0.895697
28275		5.512491	-0.356906	7.993280	-0.001718	-0.006351	0.002793	-0.677490	0.355713	-0.294434	0.328936	-0.286909	-0.084968	-0.895692
28276		5.516842	-0.370326	8.003186	-0.001913	-0.007212	0.003641	-0.675537	0.356201	-0.291992	0.328960	-0.286914	-0.084980	-0.895681
28277		5.508727	-0.388869	8.010341	-0.000817	-0.005598	0.000254	-0.671143	0.354492	-0.292725	0.328965	-0.286921	-0.084994	-0.895676
28278		5.519909	-0.349572	7.991294	-0.001048	-0.006918	0.002418	-0.671387	0.353027	-0.289307	0.329033	-0.286908	-0.085012	-0.895653
28279		5.504750	-0.386259	7.996892	-0.001145	-0.007348	0.002842	-0.674316	0.354736	-0.293945	0.329048	-0.286948	-0.085025	-0.895633
28280		5.509844	-0.377680	7.996566	-0.000539	-0.007888	0.001575	-0.668945	0.356934	-0.293457	0.329077	-0.286941	-0.085063	-0.895621
28281		5.515009	-0.369145	7.996189	-0.002291	-0.007992	0.001815	-0.667236	0.352051	-0.295654	0.329204	-0.286930	-0.085059	-0.895578
28282		5.512957	-0.378762	7.994369	0.000576	-0.007703	0.003919	-0.669922	0.350586	-0.298584	0.329321	-0.286855	-0.085113	-0.895554
28283		5.497400	-0.384398	8.009749	-0.000369	-0.004846	0.002974	-0.670898	0.356445	-0.294678	0.329386	-0.286719	-0.085170	-0.895569
28284		5.520470	-0.361211	8.003584	0.001057	-0.008188	0.000868	-0.678223	0.354492	-0.290039	0.329487	-0.286691	-0.085218	-0.895536
28285		5.522110	-0.361311	8.002449	-0.000696	-0.008291	0.001109	-0.667969	0.363525	-0.290039	0.329431	-0.286766	-0.085252	-0.895529
28286		5.533016	-0.374412	7.983817	0.001226	-0.005146	0.002266	-0.667480	0.348877	-0.292236	0.329672	-0.286772	-0.085225	-0.895441
28287		5.505554	-0.366755	8.026556	-0.000750	-0.005626	0.001148	-0.672607	0.350342	-0.290527	0.329653	-0.286724	-0.085266	-0.895460
28288		5.529285	-0.352879	8.000677	0.000873	-0.006411	0.002647	-0.667969	0.354004	-0.294189	0.329617	-0.286730	-0.085319	-0.895466
28289		5.521013	-0.371214	8.007970	-0.000365	-0.004847	0.002975	-0.673828	0.351318	-0.286377	0.329721	-0.286662	-0.085336	-0.895448
28290		5.510112	-0.386307	7.984881	-0.000742	-0.002988	0.002078	-0.671143	0.351562	-0.298340	0.329656	-0.286701	-0.085342	-0.895459
28291		5.526454	-0.362625	8.007403	0.001922	-0.007894	-0.000356	-0.660645	0.348145	-0.281982	0.329673	-0.286607	-0.085438	-0.895473
28292		5.523467	-0.358781	7.985305	0.001352	-0.006896	-0.000404	-0.671631	0.347168	-0.292725	0.329646	-0.286674	-0.085472	-0.895458
28293		5.533468	-0.362645	7.986525	-0.001288	-0.005114	0.003309	-0.671387	0.354736	-0.291748	0.329581	-0.286636	-0.085509	-0.895491
28294		5.523558	-0.359609	7.993220	-0.001545	-0.005948	0.003266	-0.675293	0.359375	-0.296875	0.329648	-0.286637	-0.085510	-0.895466
28295		5.513916	-0.356674	7.999732	-0.001103	-0.007834	0.005055	-0.671143	0.356445	-0.284180	0.329801	-0.286620	-0.085517	-0.895415
28296		5.523350	-0.382695	8.011057	-0.001158	-0.004225	0.001569	-0.666992	0.357910	-0.284912	0.329837	-0.286701	-0.085492	-0.895378
28297		5.541708	-0.356370	7.983905	-0.000876	-0.006515	0.002890	-0.671387	0.358154	-0.283936	0.329960	-0.286782	-0.085464	-0.895309
28298		5.527581	-0.352908	8.009590	-0.001575	-0.005462	0.001058	-0.669189	0.354736	-0.282715	0.330016	-0.286882	-0.085437	-0.895259
28299		5.513310	-0.377436	7.985588	-0.003866	-0.005053	0.003461	-0.671143	0.346680	-0.297852	0.330046	-0.286986	-0.085383	-0.895220
28300		5.526248	-0.363864	8.007216	-0.002055	-0.007616	0.003181	-0.679932	0.345459	-0.291016	0.329987	-0.286906	-0.085437	-0.895262
28301		5.540794	-0.369030	7.989171	-0.006131	-0.006825	0.003619	-0.668457	0.353271	-0.295166	0.329790	-0.286955	-0.085443	-0.895318
28302		5.531659	-0.345593	7.985566	-0.008549	-0.006361	0.004239	-0.673340	0.350098	-0.298828	0.329858	-0.286927	-0.085377	-0.895308
28303		5.524296	-0.375006	7.972869	-0.006988	-0.007120	0.004845	-0.676758	0.358887	-0.289307	0.329854	-0.286869	-0.085361	-0.895330
28304		5.517992	-0.385852	7.989982	-0.005940	-0.009547	0.005365	-0.664795	0.356445	-0.291260	0.329919	-0.286987	-0.085307	-0.895274
28305		5.528807	-0.373241	8.021084	-0.008506	-0.003264	0.003855	-0.677246	0.350098	-0.292236	0.330044	-0.286965	-0.085201	-0.895244
28306		5.525873	-0.381092	7.979517	-0.008577	-0.005874	0.002033	-0.664062	0.352783	-0.287109	0.329929	-0.286993	-0.085161	-0.895282
28307		5.526644	-0.373429	7.998213	-0.004284	-0.008930	0.002021	-0.666260	0.345459	-0.293213	0.329966	-0.287055	-0.085136	-0.895251
28308		5.534360	-0.396155	7.978424	-0.001036	-0.009558	0.001490	-0.672852	0.347656	-0.288818	0.329893	-0.287027	-0.085199	-0.895281
28309		5.526842	-0.383737	7.994792	-0.001226	-0.010420	0.002339	-0.664062	0.351807	-0.295410	0.329783	-0.287094	-0.085249	-0.895295
28310		5.548255	-0.361807	7.997706	-0.009782	-0.007434	0.003645	-0.671875	0.351074	-0.295410	0.329862	-0.287057	-0.085181	-0.895284
28311		5.544333	-0.382121	7.985813	-0.006272	-0.004591	0.004087	-0.668701	0.349609	-0.285889	0.329865	-0.287005	-0.085150	-0.895303
28312		5.532717	-0.388982	7.982431	-0.002543	-0.004011	0.004957	-0.671143	0.351074	-0.289062	0.329840	-0.287032	-0.085126	-0.895306
28313		5.541453	-0.393520	7.984457	-0.003017	0.004588	-0.000700	-0.678711	0.343994	-0.280518	0.329779	-0.286932	-0.085090	-0.895363
28314		5.509707	-0.383269	7.998130	-0.008876	0.005767	-0.002220	-0.674072	0.355957	-0.287842	0.329426	-0.286960	-0.084989	-0.895494
28315		5.520524	-0.388644	7.990634	-0.010135	-0.004166	-0.002092	-0.668701	0.355957	-0.295654	0.329356	-0.287024	-0.084892	-0.895509
28316		5.519604	-0.389618	7.999268	-0.002468	-0.007908	-0.000858	-0.675049	0.350586	-0.287354	0.329438	-0.286984	-0.084917	-0.895489
28317		5.516262	-0.376636	7.996722	0.004629	-0.010652	0.000329	-0.672607	0.353027	-0.289062	0.329347	-0.287058	-0.085023	-0.895488
28318		5.531219	-0.370186	7.997771	0.006917	-0.014645	0.000515	-0.674561	0.355957	-0.300049	0.329340	-0.287142	-0.085165	-0.895450
28319		5.530981	-0.356529	7.985054	0.004664	-0.013778	0.001607	-0.658691	0.347900	-0.293945	0.329439	-0.287111	-0.085303	-0.895411
28320		5.535204	-0.377543	7.983807	0.006872	-0.012927	0.004081	-0.671143	0.355225	-0.283936	0.329577	-0.287060	-0.085450	-0.895363
28321		5.533507	-0.376644	8.001133	0.004991	-0.012973	0.002544	-0.666016	0.360107	-0.292480	0.329611	-0.287193	-0.085533	-0.895299
28322		5.535758	-0.375885	7.999611	0.006911	-0.009830	0.003696	-0.669922	0.352295	-0.292725	0.329856	-0.287176	-0.085630	-0.895206
28323		5.540927	-0.365542	7.999319	0.009648	-0.005904	0.001412	-0.670166	0.358643	-0.286377	0.329917	-0.287097	-0.085775	-0.895194
28324		5.547287	-0.376236	7.999888	0.011266	-0.005746	-0.000619	-0.675537	0.353027	-0.286865	0.330034	-0.287094	-0.085909	-0.895139
28325		5.537413	-0.370415	8.006782	0.009011	-0.004878	0.000474	-0.668457	0.350098	-0.284180	0.330017	-0.287095	-0.086033	-0.895133
28326		5.553488	-0.373074	7.979614	0.005833	-0.004276	0.001902	-0.673096	0.357178	-0.291504	0.330005	-0.287104	-0.086105	-0.895128
28327		5.536128	-0.355624	7.994820	0.003787	-0.004726	-0.000101	-0.671143	0.353027	-0.294189	0.330077	-0.287073	-0.086169	-0.895105
28328		5.524806	-0.360554	7.991360	0.001659	-0.006551	0.001846	-0.670410	0.352783	-0.288818	0.330123	-0.287030	-0.086225	-0.895097
28329		5.540226	-0.355490	7.983922	0.000492	-0.002375	0.003998	-0.673584	0.353516	-0.295898	0.330170	-0.287003	-0.086229	-0.895087
28330		5.533255	-0.373872	7.982302	0.000869	-0.000651	0.002298	-0.676758	0.343262	-0.288574	0.330219	-0.286890	-0.086256	-0.895103
28331		5.540784	-0.356227	7.983501	-0.001326	-0.002449	0.003353	-0.661133	0.358643	-0.289062	0.330038	-0.286879	-0.086270	-0.895172
28332		5.530054	-0.374752	8.000611	-0.000436	-0.005280	0.003405	-0.675049	0.346924	-0.286377	0.330251	-0.286869	-0.086256	-0.895098
28333		5.531739	-0.353342	7.989697	0.000763	-0.006359	0.000865	-0.675049	0.353027	-0.289795	0.330108	-0.286916	-0.086301	-0.895131
28334		5.533039	-0.353513	7.988789	0.000873	-0.006874	0.003967	-0.672363	0.345459	-0.289062	0.330119	-0.286946	-0.086332	-0.895114
28335		5.529265	-0.372375	7.976862	-0.001800	-0.007242	0.004551	-0.676025	0.348389	-0.283691	0.330026	-0.286976	-0.086347	-0.895138
28336		5.534253	-0.364285	7.976580	-0.001705	-0.006811	0.004126	-0.676758	0.357178	-0.298340	0.329913	-0.287075	-0.086341	-0.895148
28337		5.531936	-0.374043	7.974931	0.000046	-0.006710	0.003878	-0.676025	0.347412	-0.286865	0.330015	-0.287027	-0.086378	-0.895123
28338		5.536445	-0.356359	7.994377	-0.001361	-0.008185	0.002815	-0.673828	0.350586	-0.288086	0.329896	-0.287101	-0.086399	-0.895141
28339		5.546973	-0.360718	7.995144	-0.000718	-0.009212	0.003754	-0.673096	0.345703	-0.286377	0.329862	-0.287169	-0.086421	-0.895129
28340		5.529419	-0.363370	7.979782	-0.003683	-0.007288	0.003018	-0.673828	0.355469	-0.288574	0.329741	-0.287232	-0.086413	-0.895155
28341		5.539558	-0.368028	7.980801	-0.002573	-0.006160	0.001830	-0.674561	0.357178	-0.280273	0.329751	-0.287275	-0.086395	-0.895139
28342		5.529796	-0.364574	7.987547	0.001022	-0.005526	0.000907	-0.661865	0.349365	-0.293945	0.329724	-0.287386	-0.086385	-0.895114
28343		5.545321	-0.359441	7.980004	-0.000311	-0.004391	0.001665	-0.677734	0.352295	-0.288086	0.329813	-0.287289	-0.086421	-0.895109
28344		5.528874	-0.352481	7.975209	-0.001263	-0.007754	0.002391	-0.670166	0.356934	-0.287598	0.329755	-0.287355	-0.086432	-0.895108
28345		5.539245	-0.356823	7.976076	-0.002253	-0.007992	0.001836	-0.672607	0.348145	-0.283203	0.329810	-0.287416	-0.086418	-0.895069
28346		5.529043	-0.375313	7.992858	-0.001231	-0.004657	0.002002	-0.671143	0.349609	-0.291260	0.329713	-0.287469	-0.086413	-0.895089
28347		5.530566	-0.353991	7.982055	0.000264	-0.005390	0.001711	-0.660645	0.350586	-0.294678	0.329704	-0.287438	-0.086451	-0.895098
28348		5.543925	-0.348986	7.984084	-0.000975	-0.003823	0.002044	-0.674072	0.356445	-0.280762	0.329829	-0.287330	-0.086475	-0.895084
28349		5.532370	-0.354707	7.980773	0.000334	-0.005418	0.002604	-0.671143	0.345459	-0.290527	0.329824	-0.287433	-0.086457	-0.895055
28350		5.534303	-0.367556	8.000468	-0.000146	-0.003988	0.002132	-0.669189	0.349121	-0.288574	0.329757	-0.287389	-0.086491	-0.895091
28351		5.554334	-0.341360	7.963841	-0.001896	-0.004089	0.002382	-0.673340	0.350098	-0.295410	0.329740	-0.287375	-0.086487	-0.895102
28352		5.534766	-0.356403	7.979036	-0.002331	-0.003146	0.004120	-0.672119	0.351074	-0.291260	0.329764	-0.287301	-0.086490	-0.895116
28353		5.558338	-0.377330	7.983667	-0.001229	-0.004657	0.002003	-0.668213	0.351074	-0.288086	0.329761	-0.287278	-0.086501	-0.895124
28354		5.541442	-0.370399	7.979204	-0.000719	-0.002989	0.002086	-0.667236	0.347412	-0.283447	0.329777	-0.287255	-0.086500	-0.895125
28355		5.532920	-0.357825	7.996442	0.000336	-0.005418	0.002604	-0.673584	0.354736	-0.285156	0.329726	-0.287291	-0.086510	-0.895132
28356		5.540390	-0.358595	7.966940	-0.001993	-0.007159	0.001880	-0.672852	0.348145	-0.286377	0.329707	-0.287372	-0.086492	-0.895115
28357		5.530154	-0.377151	7.983759	-0.001251	-0.005116	0.003321	-0.681396	0.353271	-0.301514	0.329639	-0.287399	-0.086489	-0.895131
28358		5.554902	-0.354621	7.968110	-0.001801	-0.003658	0.001958	-0.674805	0.348145	-0.284180	0.329652	-0.287299	-0.086520	-0.895156
28359		5.529463	-0.347472	8.001988	-0.001059	-0.001616	0.003399	-0.674072	0.356445	-0.286377	0.329556	-0.287315	-0.086495	-0.895188
28360		5.544324	-0.374042	7.985127	-0.002002	-0.002341	0.005055	-0.674805	0.343018	-0.290527	0.329598	-0.287337	-0.086443	-0.895171
28361		5.523720	-0.376445	7.980009	-0.000328	-0.004851	0.002983	-0.671387	0.345459	-0.291748	0.329487	-0.287313	-0.086479	-0.895216
28362		5.534438	-0.362352	8.011393	-0.001801	-0.003658	0.001958	-0.678223	0.356445	-0.286621	0.329434	-0.287263	-0.086496	-0.895250
28363		5.534369	-0.350150	7.990374	0.001904	-0.006181	0.003203	-0.673584	0.354980	-0.286377	0.329420	-0.287321	-0.086506	-0.895235
28364		5.533323	-0.381229	7.989472	-0.000327	-0.004851	0.002984	-0.670654	0.359619	-0.287842	0.329423	-0.287358	-0.086492	-0.895224
28365		5.543795	-0.373015	7.961088	-0.001127	-0.001587	0.002507	-0.668945	0.347656	-0.283447	0.329509	-0.287348	-0.086450	-0.895199
28366		5.536175	-0.351495	7.989063	-0.001517	0.000274	0.001610	-0.672852	0.351562	-0.291260	0.329442	-0.287328	-0.086418	-0.895233
28367		5.523787	-0.357570	7.986326	-0.002714	-0.001285	0.003226	-0.672607	0.352295	-0.289307	0.329452	-0.287279	-0.086391	-0.895248
28368		5.524115	-0.358503	7.986058	-0.002140	-0.002284	0.003272	-0.672363	0.357666	-0.291016	0.329457	-0.287259	-0.086364	-0.895255
28369		5.524580	-0.359530	7.985689	-0.002091	-0.002772	0.005482	-0.675537	0.353760	-0.290283	0.329555	-0.287242	-0.086323	-0.895229
28370		5.529703	-0.364020	8.006377	-0.001148	-0.002047	0.003825	-0.669189	0.351318	-0.282959	0.329563	-0.287218	-0.086303	-0.895235
28371		5.532841	-0.373912	7.976611	0.000828	-0.004212	0.004004	-0.669189	0.347168	-0.286621	0.329555	-0.287256	-0.086295	-0.895227
28372		5.541043	-0.356402	7.977363	-0.001247	-0.005117	0.003322	-0.673340	0.355469	-0.295898	0.329517	-0.287268	-0.086294	-0.895237
28373		5.533238	-0.353671	7.974671	-0.001954	-0.005468	0.006338	-0.669922	0.346191	-0.288086	0.329624	-0.287235	-0.086287	-0.895209
28374		5.524709	-0.372574	7.982189	-0.000736	-0.003449	0.003405	-0.675293	0.351562	-0.291748	0.329583	-0.287213	-0.086293	-0.895230
28375		5.535796	-0.367602	7.993888	-0.000049	-0.003558	0.001707	-0.666748	0.354248	-0.286621	0.329558	-0.287181	-0.086309	-0.895248
28376		5.539110	-0.346262	7.973760	-0.000049	-0.003558	0.001707	-0.674072	0.347656	-0.284668	0.329600	-0.287178	-0.086303	-0.895234
28377		5.535362	-0.377375	7.982809	-0.000062	-0.001379	0.003954	-0.674316	0.352295	-0.291260	0.329519	-0.287178	-0.086286	-0.895266
28378		5.520972	-0.373750	8.009066	0.000433	-0.004989	0.002178	-0.665527	0.349609	-0.289062	0.329512	-0.287165	-0.086307	-0.895270
28379		5.529693	-0.365338	7.990001	-0.001153	-0.004686	0.002898	-0.666260	0.353516	-0.286133	0.329547	-0.287146	-0.086312	-0.895263
28380		5.533971	-0.347876	8.009708	-0.001519	-0.006410	0.004601	-0.668945	0.354004	-0.287598	0.329606	-0.287186	-0.086291	-0.895231
28381		5.525838	-0.366719	8.016962	-0.001590	-0.006382	0.003709	-0.677246	0.356689	-0.290039	0.329645	-0.287219	-0.086276	-0.895207
28382		5.529645	-0.376718	7.986694	-0.000995	-0.006922	0.002436	-0.678711	0.349365	-0.290771	0.329639	-0.287262	-0.086272	-0.895196
28383		5.541780	-0.350200	7.987962	-0.000250	-0.004881	0.003877	-0.666748	0.356445	-0.294922	0.329576	-0.287261	-0.086282	-0.895219
28384		5.526686	-0.365195	7.983879	-0.001496	-0.005951	0.003284	-0.669678	0.355469	-0.282959	0.329708	-0.287222	-0.086291	-0.895181
28385		5.520036	-0.374851	8.001469	-0.001261	-0.005577	0.004643	-0.673340	0.356445	-0.293457	0.329732	-0.287292	-0.086253	-0.895154
28386		5.526859	-0.366443	7.991827	0.000109	-0.005795	0.001246	-0.669922	0.350098	-0.283936	0.329773	-0.287273	-0.086277	-0.895142
28387		5.533694	-0.358065	7.982173	-0.003224	-0.005589	0.002220	-0.677979	0.345459	-0.289307	0.329716	-0.287328	-0.086241	-0.895150
28388		5.525476	-0.376662	7.989498	0.000091	-0.006255	0.002564	-0.678955	0.356934	-0.292725	0.329598	-0.287341	-0.086269	-0.895186
28389		5.536071	-0.359314	7.980468	-0.002486	-0.006187	0.002732	-0.673828	0.357422	-0.284668	0.329595	-0.287361	-0.086252	-0.895182
28390		5.527350	-0.368727	8.007644	-0.000318	-0.004852	0.002985	-0.673584	0.352539	-0.291260	0.329595	-0.287414	-0.086225	-0.895168
28391		5.523487	-0.365777	7.985995	-0.001884	-0.004088	0.002388	-0.672607	0.358643	-0.292480	0.329590	-0.287396	-0.086216	-0.895176
28392		5.518501	-0.375421	7.994316	-0.000656	-0.003479	0.004299	-0.680176	0.358398	-0.283936	0.329678	-0.287369	-0.086200	-0.895154
28393		5.535708	-0.361722	7.996871	-0.001154	-0.007325	0.001971	-0.672119	0.361816	-0.285156	0.329614	-0.287475	-0.086171	-0.895147
28394		5.517721	-0.363830	7.981882	-0.000644	-0.005657	0.002053	-0.671631	0.331299	-0.291504	0.329648	-0.287537	-0.086137	-0.895118
28395		5.530355	-0.371426	8.013582	-0.000644	-0.005658	0.002053	-0.676270	0.346191	-0.286865	0.329498	-0.287475	-0.086210	-0.895185
28396		5.541455	-0.363184	7.984687	-0.001243	-0.007756	0.002398	-0.676758	0.347656	-0.292480	0.329391	-0.287525	-0.086222	-0.895208
28397		5.540831	-0.363856	7.993225	-0.002572	-0.006618	0.003160	-0.670410	0.352783	-0.289795	0.329341	-0.287524	-0.086229	-0.895226
28398		5.527761	-0.379010	7.979606	-0.001053	-0.004255	0.002475	-0.678467	0.348145	-0.289307	0.329361	-0.287508	-0.086225	-0.895224
28399		5.530287	-0.370353	7.989215	-0.000387	-0.004824	0.002094	-0.666016	0.346436	-0.289795	0.329274	-0.287509	-0.086237	-0.895254
28400		5.522454	-0.367075	7.986602	-0.000404	-0.005284	0.003412	-0.672852	0.352051	-0.288574	0.329301	-0.287477	-0.086262	-0.895252
28401		5.532582	-0.340607	7.997415	-0.001577	-0.006383	0.003713	-0.669434	0.347656	-0.289795	0.329295	-0.287503	-0.086250	-0.895247
28402		5.531601	-0.372261	7.996361	-0.002479	-0.006187	0.002736	-0.670898	0.349121	-0.289795	0.329283	-0.287501	-0.086251	-0.895252
28403		5.531082	-0.350792	7.995168	0.001633	-0.003433	0.000560	-0.661621	0.350830	-0.284424	0.329262	-0.287456	-0.086288	-0.895271
28404		5.528279	-0.359724	7.993877	0.000205	-0.005364	0.000821	-0.672363	0.351807	-0.284424	0.329290	-0.287464	-0.086300	-0.895257
28405		5.520946	-0.365496	7.971391	-0.001632	-0.005893	0.001503	-0.670898	0.349365	-0.285400	0.329229	-0.287514	-0.086277	-0.895265
28406		5.546103	-0.367849	8.005674	-0.000549	-0.005227	0.001628	-0.672363	0.350342	-0.283447	0.329176	-0.287536	-0.086275	-0.895278
28407		5.524614	-0.357066	7.980210	0.000699	-0.004158	0.002220	-0.667236	0.352295	-0.285400	0.329114	-0.287562	-0.086267	-0.895293
28408		5.526940	-0.348189	7.989980	0.000288	-0.002755	0.002641	-0.669922	0.357666	-0.294434	0.329136	-0.287549	-0.086257	-0.895290
28409		5.522087	-0.366592	7.978700	0.000378	-0.002324	0.002215	-0.666748	0.350342	-0.287109	0.329243	-0.287477	-0.086271	-0.895273
28410		5.522321	-0.357790	7.998068	-0.000885	-0.003853	0.002943	-0.676270	0.346680	-0.289551	0.329264	-0.287464	-0.086263	-0.895270
28411		5.520362	-0.354766	7.966931	-0.000294	-0.004393	0.001669	-0.672119	0.351318	-0.294189	0.329176	-0.287449	-0.086275	-0.895306
28412		5.534864	-0.362392	7.989198	-0.000383	-0.004825	0.002095	-0.676270	0.354736	-0.289551	0.329205	-0.287403	-0.086300	-0.895308
28413		5.523267	-0.368049	7.985971	-0.000219	-0.004422	0.002561	-0.672119	0.341064	-0.285156	0.329191	-0.287407	-0.086293	-0.895312
28414		5.545140	-0.357639	8.009608	-0.000457	-0.004795	0.001203	-0.671631	0.354980	-0.290527	0.329054	-0.287411	-0.086302	-0.895360
28415		5.546573	-0.367198	7.989041	0.000177	-0.006286	0.003458	-0.669434	0.344482	-0.285156	0.329102	-0.287417	-0.086312	-0.895340
28416		5.538562	-0.364245	7.986550	-0.002876	-0.002145	0.004089	-0.672607	0.352295	-0.293457	0.329045	-0.287404	-0.086269	-0.895369
28417		5.538778	-0.365148	7.986360	-0.000620	-0.000381	0.003911	-0.670654	0.352295	-0.291504	0.329097	-0.287321	-0.086261	-0.895377
28418		5.519288	-0.358146	7.991994	0.000858	-0.001578	0.004933	-0.667969	0.355957	-0.291992	0.329164	-0.287259	-0.086264	-0.895372
28419		5.544779	-0.357671	7.977215	-0.003196	-0.000311	0.004084	-0.673340	0.351074	-0.288330	0.329265	-0.287196	-0.086219	-0.895360
28420		5.519315	-0.390959	7.982001	-0.000724	-0.001273	0.005656	-0.668457	0.346924	-0.292725	0.329270	-0.287167	-0.086186	-0.895370
28421		5.532453	-0.364837	7.974425	-0.001358	0.000218	0.003401	-0.672363	0.358398	-0.286621	0.329294	-0.287069	-0.086177	-0.895394
28422		5.540709	-0.360059	7.996243	0.000054	0.001688	0.004458	-0.668213	0.350098	-0.294434	0.329346	-0.287029	-0.086127	-0.895392
28423		5.543745	-0.352038	7.997340	-0.002438	0.004368	0.006452	-0.668701	0.346924	-0.290771	0.329442	-0.286887	-0.086079	-0.895407
28424		5.569967	-0.321614	7.983771	-0.005397	0.008941	0.006657	-0.662842	0.350830	-0.290771	0.329468	-0.286730	-0.085966	-0.895459
28425		5.538091	-0.396190	7.979753	-0.010012	0.013849	0.006693	-0.660400	0.353271	-0.289062	0.329570	-0.286534	-0.085785	-0.895501
28426		5.495836	-0.374899	8.012742	-0.013407	0.011910	0.004534	-0.661621	0.359619	-0.293945	0.329659	-0.286385	-0.085575	-0.895536
28427		5.507559	-0.385987	8.036742	-0.026603	0.006806	-0.008448	-0.671143	0.344727	-0.292236	0.329634	-0.286314	-0.085295	-0.895595
28428		5.534854	-0.319559	8.051845	-0.041942	-0.003842	-0.008029	-0.671875	0.349365	-0.293945	0.329289	-0.286433	-0.084873	-0.895724
28429		5.606233	-0.133999	8.123000	-0.088424	-0.018676	0.007187	-0.667969	0.358643	-0.289307	0.328993	-0.286919	-0.083943	-0.895765
28430		5.708390	-0.130998	8.130518	-0.161163	-0.019562	0.056680	-0.667725	0.356445	-0.278564	0.329091	-0.287800	-0.082015	-0.895625
28431		5.764800	-0.198118	8.073200	-0.202151	0.033457	0.100947	-0.661133	0.369141	-0.273682	0.329482	-0.288360	-0.079221	-0.895553
28432		5.544957	-0.524722	7.995268	-0.232458	0.087969	0.120446	-0.661621	0.368408	-0.281006	0.330161	-0.288482	-0.075786	-0.895560
28433		5.021429	-0.945123	7.840018	-0.165011	0.056912	0.086550	-0.664795	0.369873	-0.272949	0.330657	-0.288578	-0.073383	-0.895547
28434		5.008520	-0.957293	7.917253	-0.060728	-0.029370	0.025152	-0.657715	0.376465	-0.279785	0.330668	-0.289212	-0.072693	-0.895394
28435		4.954177	-0.836906	7.941404	0.038480	-0.156224	-0.022549	-0.670410	0.376221	-0.278564	0.330548	-0.290750	-0.073839	-0.894847
28436		5.176079	-0.953303	7.903833	0.123825	-0.250381	-0.072950	-0.664795	0.369873	-0.282959	0.330008	-0.292954	-0.076502	-0.894103
28437		5.568923	-0.466917	7.796859	0.148418	-0.253894	-0.094266	-0.673828	0.366455	-0.260498	0.329353	-0.294996	-0.079558	-0.893406
28438		6.022712	-0.348653	7.694662	0.128165	-0.122921	-0.101881	-0.678955	0.359131	-0.275635	0.328531	-0.295797	-0.081818	-0.893240
28439		5.725263	-0.659708	7.827421	0.108121	0.035686	-0.127757	-0.677490	0.360352	-0.272217	0.327501	-0.294767	-0.083342	-0.893817
28440		5.376776	-0.123889	8.262289	0.088713	0.005964	-0.125740	-0.677490	0.347656	-0.273926	0.326428	-0.294188	-0.084750	-0.894268
28441		5.446964	-0.759609	7.905061	0.088581	-0.044580	-0.183674	-0.681152	0.352783	-0.275635	0.324554	-0.294087	-0.086578	-0.894808
28442		5.579089	0.065799	8.131467	0.058850	-0.041120	-0.147500	-0.678711	0.346191	-0.273682	0.323066	-0.294112	-0.087927	-0.895207
28443		5.927147	-0.014866	7.703475	0.005851	-0.046535	-0.080634	-0.683838	0.344971	-0.275879	0.322103	-0.294483	-0.088458	-0.895379
28444		5.819327	0.398603	8.397001	-0.126674	-0.076984	0.098796	-0.688477	0.341309	-0.271729	0.322620	-0.295915	-0.086975	-0.894867
28445		4.563135	0.419231	10.252152	-0.371372	-0.604329	0.307825	-0.692139	0.352295	-0.256348	0.323884	-0.304454	-0.084098	-0.891815
28446		2.607131	1.206516	13.720714	-0.831589	-2.191426	0.567846	-0.709717	0.374268	-0.205811	0.324474	-0.332685	-0.081469	-0.881703
28447		2.410670	-0.954701	13.688391	-1.080203	-4.838981	0.739783	-0.740234	0.406494	-0.098877	0.322423	-0.390493	-0.085872	-0.858012
28448		9.196469	0.494732	12.171563	-1.056295	-6.074558	0.799783	-0.762939	0.422852	0.018799	0.318204	-0.459597	-0.094712	-0.823739
28449		21.799388	4.979403	8.920356	-2.477519	-3.608988	0.808754	-0.760498	0.446289	0.128662	0.307489	-0.506756	-0.078709	-0.801532
28450		15.669578	4.263661	-6.435732	-4.971362	0.552885	-1.112070	-0.771729	0.424561	0.183594	0.264785	-0.518109	-0.033697	-0.812599
28451		5.120330	-6.550573	-7.760657	-1.042197	1.683691	-2.853112	-0.812988	0.378662	0.163818	0.229549	-0.502716	-0.036084	-0.832635
28452		3.962033	-6.795434	-3.902336	1.553716	1.211400	-1.349465	-0.830566	0.339111	0.108154	0.225732	-0.484774	-0.057327	-0.843062
28453		-5.514162	-0.187307	-4.903194	1.181478	-0.152619	-0.564687	-0.839355	0.325684	0.101074	0.226810	-0.482536	-0.073681	-0.842786
28454		-0.120155	-4.601946	-2.219751	0.082565	-1.897291	-0.194073	-0.848389	0.328369	0.148682	0.223461	-0.501930	-0.081135	-0.831594
28455		-5.269561	-4.945287	-1.193825	1.474507	-2.441291	0.118453	-0.846436	0.326172	0.183594	0.231323	-0.522945	-0.102514	-0.813946
28456		36.937331	7.529837	4.310117	2.103857	1.360128	-0.269988	-0.843018	0.315918	0.124756	0.243940	-0.502380	-0.121688	-0.820549
28457		7.483355	-2.946139	7.031796	0.028903	5.020172	0.263874	-0.838623	0.323486	0.023682	0.254012	-0.450215	-0.104883	-0.849579
28458		7.049510	-4.262672	12.628373	0.054786	5.671994	-0.415867	-0.799316	0.323975	-0.086914	0.256722	-0.388143	-0.089610	-0.880573
28459		2.333406	-2.703642	12.803550	0.752906	3.944337	-1.260383	-0.784668	0.278564	-0.178711	0.250566	-0.340345	-0.091255	-0.901695
28460		3.027357	2.709750	14.135270	0.606866	1.645248	-0.979879	-0.790283	0.264893	-0.215576	0.243873	-0.318630	-0.097070	-0.910812
28461		4.896391	2.826307	11.095574	0.104218	-0.243038	-0.330075	-0.782715	0.250732	-0.211670	0.240196	-0.320618	-0.100294	-0.910742
28462		5.519265	3.053493	11.165651	-0.398480	-1.503648	0.477908	-0.799561	0.264160	-0.161865	0.242073	-0.339404	-0.098324	-0.903625
28463		4.002867	1.454679	12.790210	-0.614191	-3.174112	1.016906	-0.816162	0.295654	-0.097412	0.246807	-0.377986	-0.096583	-0.887065
28464		4.755635	-1.558105	12.010447	-0.508791	-5.138169	0.964764	-0.838623	0.313232	0.012695	0.248333	-0.436769	-0.102007	-0.858579
28465		10.699430	-3.977089	10.524519	-0.198039	-5.810649	0.418777	-0.840088	0.319580	0.125488	0.243642	-0.498993	-0.115304	-0.823620
28466		18.033790	-0.138446	5.628572	-0.383455	-3.743185	-0.171465	-0.855713	0.320557	0.207520	0.233777	-0.537812	-0.123619	-0.800515
28467		20.303519	1.624433	-2.168633	-2.035874	-0.071809	-1.181668	-0.866699	0.281738	0.229004	0.207675	-0.542398	-0.111049	-0.806439
28468		3.213977	-6.451101	-2.786826	-0.424537	2.514168	-1.383776	-0.880859	0.262451	0.169189	0.193797	-0.515875	-0.109292	-0.827267
28469		0.173355	-4.087550	-4.650023	0.626174	1.931266	0.150356	-0.877197	0.263184	0.121094	0.201756	-0.494394	-0.109941	-0.838321
28470		-4.086590	1.041460	-8.302592	0.619764	-0.337972	0.657568	-0.868408	0.275146	0.131104	0.211959	-0.497189	-0.113166	-0.833709
28471		2.480394	0.853771	-2.800799	-0.514938	-1.645875	0.837362	-0.861572	0.296143	0.166260	0.215070	-0.516700	-0.106896	-0.821791
28472		-0.500719	0.259595	-2.882280	0.629693	-1.610551	0.598254	-0.866455	0.299316	0.205322	0.223056	-0.532172	-0.113791	-0.808759
28473		-0.404963	4.145101	-3.701039	1.098260	-2.518813	-0.020145	-0.851074	0.314453	0.251221	0.225651	-0.554314	-0.131407	-0.790284
28474		38.608421	5.804020	1.985079	1.053391	3.838854	0.072551	-0.851807	0.308838	0.159424	0.238420	-0.513029	-0.129517	-0.814360
28475		11.796481	-0.600193	13.478344	-0.222239	5.830782	0.948931	-0.832275	0.327148	0.029297	0.255477	-0.454502	-0.103576	-0.847013
28476		2.345539	-6.653276	13.300084	0.065876	5.353628	0.184740	-0.797607	0.334961	-0.067383	0.264199	-0.396845	-0.085998	-0.874824
28477		3.032632	-3.300726	13.720150	0.622205	3.217646	-1.076305	-0.789551	0.316406	-0.138184	0.258730	-0.358049	-0.087461	-0.892866
28478		4.903581	3.783009	11.761085	0.396155	1.351608	-0.874690	-0.792236	0.286621	-0.169434	0.252135	-0.340600	-0.091396	-0.901147
28479		5.879530	1.656303	9.972398	-0.073459	0.009081	-0.015547	-0.790039	0.285400	-0.164307	0.251633	-0.340656	-0.090603	-0.901347
28480		6.282440	1.554899	9.532525	-0.396614	-0.699787	0.533340	-0.792725	0.300537	-0.144287	0.255119	-0.350308	-0.086059	-0.897102
28481		3.674268	-0.312492	12.565434	-0.611112	-2.138355	0.926592	-0.787598	0.331787	-0.097168	0.260397	-0.377011	-0.081934	-0.885067
28482		2.461007	-2.384408	13.530673	-0.581289	-4.559697	0.631701	-0.806396	0.345947	-0.003174	0.259510	-0.429267	-0.087214	-0.860685
28483		9.573627	-1.703410	12.430688	-0.487793	-6.142227	0.215636	-0.836914	0.354980	0.127930	0.251707	-0.495752	-0.100410	-0.825101
28484		21.145609	1.498853	8.816998	-1.002507	-4.874973	0.049881	-0.836670	0.351807	0.238281	0.239365	-0.548180	-0.104832	-0.794489
28485		20.300144	1.885561	-2.921552	-3.132760	-0.582154	-0.228740	-0.835205	0.335693	0.292480	0.214317	-0.562552	-0.076666	-0.794812
28486		2.727958	-5.725813	-3.482901	-0.086812	1.850288	-1.208593	-0.855225	0.311523	0.242188	0.203070	-0.542997	-0.079111	-0.810961
28487		4.228704	-4.713377	2.613221	1.481621	2.001145	0.058401	-0.856201	0.313721	0.167725	0.215408	-0.518707	-0.088495	-0.822624
28488		-4.163713	0.650898	0.303217	1.678358	2.961499	0.379862	-0.845215	0.317871	0.084717	0.233232	-0.483629	-0.095197	-0.838238
28489		-5.046307	3.645297	-4.071877	-0.623546	0.586177	-0.662235	-0.856445	0.299316	0.079590	0.223159	-0.478409	-0.090908	-0.844429
28490		3.109913	-5.668159	-2.913225	-0.938119	0.204246	-0.324340	-0.848877	0.293945	0.088379	0.214309	-0.478400	-0.082348	-0.847599
28491		-3.757502	-1.093609	-6.716710	0.859971	-0.619656	0.531439	-0.853516	0.312256	0.095947	0.224381	-0.483097	-0.089893	-0.841540
28492		-1.255433	2.461385	-5.871913	0.279634	-2.880843	0.892527	-0.843018	0.332275	0.157959	0.232024	-0.513212	-0.095422	-0.820776
28493		50.735207	8.901083	2.885846	0.793489	4.351090	0.583191	-0.821777	0.334717	0.050781	0.247895	-0.466141	-0.087046	-0.844798
28494		8.162860	-11.431514	16.728605	0.161806	6.760220	0.728226	-0.792236	0.355957	-0.079102	0.263027	-0.393429	-0.063394	-0.878642
28495		-0.152958	-3.877838	12.004040	0.916246	5.414490	-0.936494	-0.755615	0.325684	-0.194336	0.260913	-0.329274	-0.060149	-0.905475
28496		-0.302409	3.872439	18.912881	0.758947	2.042660	-0.933856	-0.739990	0.302979	-0.237549	0.254869	-0.302791	-0.065896	-0.915979
28497		6.420622	-0.657089	8.475573	0.182090	-0.267517	-0.272271	-0.750977	0.289307	-0.233643	0.252187	-0.304988	-0.069857	-0.915699
28498		7.596742	1.244810	6.689654	0.078448	0.131368	-0.085150	-0.750732	0.289795	-0.241211	0.251596	-0.303104	-0.070660	-0.916425
28499		6.056200	0.306661	7.944024	-0.083777	0.311235	0.229332	-0.752197	0.294678	-0.251221	0.254159	-0.299947	-0.067860	-0.916968
28500		5.004719	-0.690703	8.673040	-0.123489	0.000787	0.275796	-0.750000	0.302734	-0.242432	0.256840	-0.300509	-0.065420	-0.916214
28501		5.257458	-0.172957	8.204331	-0.138292	-0.287608	0.254829	-0.737549	0.312012	-0.236816	0.258983	-0.304398	-0.063810	-0.914439
28502		5.494758	-0.331896	7.638953	-0.136983	-0.290574	0.294105	-0.742676	0.314209	-0.238525	0.261569	-0.308338	-0.062074	-0.912500
28503		5.800740	-1.325633	7.012209	-0.023512	-0.079161	0.152754	-0.737793	0.316162	-0.234863	0.263142	-0.309382	-0.061485	-0.911734
28504		5.972937	-1.270750	6.914583	0.101916	0.248479	-0.080419	-0.734619	0.312012	-0.238281	0.262790	-0.306098	-0.062148	-0.912898
28505		5.367640	-0.075704	7.697135	0.172082	0.469019	-0.173088	-0.730713	0.308350	-0.246094	0.261813	-0.299988	-0.063238	-0.915130
28506		5.200100	0.117739	8.598977	0.101378	0.349430	-0.053797	-0.727539	0.311279	-0.251709	0.261833	-0.295561	-0.063464	-0.916547
28507		5.359588	-0.295290	8.419244	0.033140	0.120329	0.018443	-0.729248	0.304443	-0.261475	0.262245	-0.294036	-0.063391	-0.916925
28508		5.488937	-0.693090	8.108889	0.028013	0.020745	-0.012370	-0.727295	0.295654	-0.257812	0.262206	-0.293643	-0.063699	-0.917041
28509		5.495426	-0.559530	8.181645	0.046726	-0.027761	-0.060617	-0.723633	0.304199	-0.260498	0.261642	-0.293707	-0.064557	-0.917122
28510		5.711891	-0.046355	8.082078	0.015929	-0.087866	-0.043871	-0.737793	0.300293	-0.253418	0.261108	-0.294574	-0.065195	-0.916951
28511		5.730606	-0.071089	7.827736	-0.031261	-0.084057	0.014841	-0.734619	0.303467	-0.246582	0.261077	-0.295599	-0.065066	-0.916639
28512		5.657532	-0.329176	7.720832	-0.032615	-0.012854	0.030511	-0.731445	0.308350	-0.248535	0.261281	-0.295825	-0.064634	-0.916538
28513		5.590944	-0.384808	7.817368	-0.013247	0.061846	0.017997	-0.722900	0.302979	-0.251709	0.261474	-0.295123	-0.064226	-0.916738
28514		5.550651	-0.314710	7.930316	-0.001280	0.093678	0.014043	-0.724365	0.308350	-0.253174	0.261691	-0.294014	-0.063867	-0.917058
28515		5.449745	-0.383697	8.060265	-0.005642	0.091516	0.017037	-0.728027	0.299561	-0.255127	0.261926	-0.292945	-0.063455	-0.917361
28516		5.379053	-0.438506	8.114304	-0.000844	0.059738	0.008485	-0.727783	0.305908	-0.258057	0.262054	-0.292219	-0.063232	-0.917571
28517		5.385469	-0.471148	8.099183	0.000502	0.015966	0.003241	-0.728516	0.301025	-0.263916	0.262092	-0.291986	-0.063188	-0.917638
28518		5.478259	-0.444539	8.030262	0.008396	-0.017909	-0.014383	-0.731934	0.305176	-0.263672	0.261929	-0.292101	-0.063408	-0.917632
28519		5.570672	-0.300224	7.949847	0.008794	-0.012148	-0.016180	-0.725098	0.307373	-0.258545	0.261752	-0.292148	-0.063621	-0.917653
28520		5.560877	-0.241174	7.932989	0.002823	0.008203	0.002531	-0.730713	0.300781	-0.264404	0.261785	-0.291996	-0.063631	-0.917692
28521		5.552475	-0.261584	7.992499	-0.013271	0.023879	0.021761	-0.725342	0.315918	-0.267578	0.261992	-0.291732	-0.063336	-0.917737
28522		5.487301	-0.285283	8.012209	-0.025846	0.027674	0.033116	-0.727783	0.305420	-0.260742	0.262288	-0.291476	-0.062844	-0.917768
28523		5.469636	-0.418837	8.040668	-0.025173	0.019071	0.035717	-0.725830	0.298340	-0.260010	0.262610	-0.291318	-0.062379	-0.917758
28524		5.428822	-0.447482	8.042725	-0.018716	0.009413	0.027375	-0.721680	0.312256	-0.252197	0.262851	-0.291242	-0.062049	-0.917735
28525		5.453490	-0.478742	8.026134	-0.007825	0.001335	0.018230	-0.727539	0.298584	-0.262939	0.263022	-0.291217	-0.061905	-0.917704
28526		5.442626	-0.478356	8.033777	0.004649	-0.005152	0.000990	-0.723877	0.309326	-0.264160	0.263033	-0.291212	-0.061987	-0.917697
28527		5.426741	-0.438324	8.022958	0.014687	-0.009546	-0.008882	-0.720215	0.308594	-0.266357	0.262966	-0.291216	-0.062234	-0.917698
28528		5.536957	-0.322079	8.024777	0.015230	-0.010395	-0.010640	-0.722900	0.310059	-0.263428	0.262879	-0.291227	-0.062497	-0.917701
28529		5.524712	-0.327121	8.030235	0.001431	-0.005226	0.002879	-0.726318	0.301758	-0.265625	0.262901	-0.291235	-0.062536	-0.917690
28530		5.466857	-0.413221	8.029432	-0.000316	-0.002441	0.004647	-0.721924	0.298096	-0.257080	0.262939	-0.291218	-0.062539	-0.917684
28531		5.468343	-0.381818	8.022281	0.001761	-0.003418	0.001268	-0.731201	0.315918	-0.262451	0.262946	-0.291203	-0.062582	-0.917684
28532		5.500595	-0.349929	8.021010	-0.000731	-0.007570	0.003407	-0.721680	0.311035	-0.262695	0.262967	-0.291246	-0.062603	-0.917663
28533		5.508583	-0.363298	8.020046	-0.004002	-0.008157	0.006576	-0.719727	0.310303	-0.259033	0.263011	-0.291308	-0.062576	-0.917632
28534		5.481234	-0.388350	8.021165	-0.006055	-0.003739	0.011054	-0.724121	0.301758	-0.257812	0.263102	-0.291331	-0.062496	-0.917605
28535		5.477810	-0.392273	8.039794	-0.002535	-0.001796	0.006676	-0.719727	0.306152	-0.254883	0.263156	-0.291315	-0.062465	-0.917596
28536		5.495915	-0.384700	8.013937	-0.003534	-0.002516	0.006537	-0.728271	0.310303	-0.263672	0.263206	-0.291312	-0.062426	-0.917585
28537		5.477822	-0.380190	8.010522	-0.001453	-0.000625	0.006412	-0.723877	0.304932	-0.260498	0.263262	-0.291280	-0.062404	-0.917581
28538		5.427145	-0.400153	8.028297	-0.003121	-0.000255	0.004522	-0.716797	0.305420	-0.263916	0.263291	-0.291247	-0.062369	-0.917585
28539		5.488730	-0.376969	8.022336	-0.001126	-0.009259	0.003263	-0.727295	0.302002	-0.259766	0.263306	-0.291310	-0.062391	-0.917560
28540		5.512625	-0.420621	7.991658	-0.001235	-0.005577	0.000850	-0.726074	0.308105	-0.269287	0.263295	-0.291330	-0.062409	-0.917555
28541		5.494071	-0.398619	8.019886	0.003258	0.004087	-0.002951	-0.715088	0.302246	-0.260498	0.263264	-0.291220	-0.062459	-0.917596
28542		5.453058	-0.387189	8.032968	0.006523	0.000599	-0.004183	-0.731934	0.298340	-0.262207	0.263230	-0.291139	-0.062564	-0.917624
28543		5.493820	-0.357108	8.033798	0.001597	-0.004323	0.002073	-0.729736	0.309570	-0.263428	0.263244	-0.291137	-0.062606	-0.917618
28544		5.481103	-0.403798	8.025876	-0.001854	-0.005181	0.003014	-0.722168	0.312500	-0.253174	0.263260	-0.291156	-0.062609	-0.917607
28545		5.482941	-0.372812	8.018494	-0.001607	-0.003824	0.001805	-0.721924	0.304688	-0.264648	0.263268	-0.291160	-0.062618	-0.917603
28546		5.463917	-0.398520	8.021887	0.002650	0.000982	-0.001008	-0.727783	0.308350	-0.262695	0.263253	-0.291090	-0.062663	-0.917626
28547		5.487261	-0.384941	8.028322	0.004894	0.003777	-0.001940	-0.724121	0.314697	-0.264648	0.263242	-0.290980	-0.062731	-0.917660
28548		5.474260	-0.350701	8.039720	0.006024	0.005460	-0.003485	-0.721436	0.308838	-0.253418	0.263221	-0.290846	-0.062813	-0.917703
28549		5.480065	-0.362322	8.040315	-0.001338	0.000973	0.001693	-0.729736	0.303467	-0.259033	0.263232	-0.290795	-0.062810	-0.917716
28550		5.465209	-0.378927	8.035931	-0.005360	0.001025	0.003516	-0.721924	0.311035	-0.255371	0.263241	-0.290755	-0.062749	-0.917730
28551		5.412819	-0.376417	8.045489	-0.001146	-0.002256	0.003703	-0.724609	0.304688	-0.257812	0.263273	-0.290741	-0.062751	-0.917725
28552		5.456613	-0.393507	8.071215	0.000582	-0.016058	0.002557	-0.721436	0.312500	-0.263672	0.263280	-0.290876	-0.062818	-0.917676
28553		5.495024	-0.375679	8.018087	-0.000541	-0.013668	0.002164	-0.718018	0.305420	-0.261719	0.263282	-0.290987	-0.062865	-0.917637
28554		5.489714	-0.372169	8.005643	-0.000398	-0.005762	0.001796	-0.727783	0.308594	-0.268311	0.263282	-0.291005	-0.062886	-0.917630
28555		5.480629	-0.385168	8.041354	0.001462	-0.008156	0.000502	-0.726562	0.311035	-0.256104	0.263270	-0.291042	-0.062940	-0.917618
28556		5.429292	-0.366269	8.021183	0.001985	-0.009578	0.000900	-0.724609	0.300781	-0.265381	0.263276	-0.291100	-0.063013	-0.917592
28557		5.491973	-0.365185	8.032056	0.001360	-0.012050	-0.000191	-0.722656	0.312744	-0.261963	0.263246	-0.291181	-0.063078	-0.917571
28558		5.477477	-0.381656	8.035703	-0.001137	-0.008626	0.000232	-0.729004	0.306885	-0.255371	0.263232	-0.291235	-0.063111	-0.917555
28559		5.476065	-0.351804	8.046998	0.000154	-0.006038	-0.002121	-0.727539	0.305664	-0.259277	0.263197	-0.291257	-0.063161	-0.917555
28560		5.489732	-0.384165	8.035190	0.000969	-0.009664	-0.002273	-0.722168	0.313965	-0.266113	0.263154	-0.291314	-0.063229	-0.917545
28561		5.466821	-0.366143	8.030654	-0.001948	-0.009073	0.002325	-0.722412	0.310059	-0.258057	0.263158	-0.291375	-0.063243	-0.917523
28562		5.478841	-0.400751	8.028119	-0.002876	-0.009913	0.003943	-0.727783	0.310303	-0.265869	0.263180	-0.291455	-0.063248	-0.917491
28563		5.446965	-0.380250	8.021873	0.000832	-0.011202	0.001570	-0.719727	0.302734	-0.260498	0.263177	-0.291530	-0.063301	-0.917465
28564		5.498072	-0.385349	8.029428	0.003425	-0.013601	-0.001416	-0.717529	0.300293	-0.264893	0.263143	-0.291622	-0.063401	-0.917438
28565		5.526480	-0.347734	8.006444	0.002218	-0.011663	-0.001405	-0.722412	0.302002	-0.274170	0.263097	-0.291691	-0.063475	-0.917424
28566		5.479658	-0.388521	8.031328	0.001427	-0.008669	0.001784	-0.727539	0.304199	-0.260986	0.263079	-0.291725	-0.063510	-0.917416
28567		5.481443	-0.364955	8.012461	0.001403	-0.008037	-0.001252	-0.722656	0.308105	-0.261230	0.263048	-0.291763	-0.063572	-0.917409
28568		5.497006	-0.380130	8.022428	0.004948	-0.010230	-0.002821	-0.725586	0.306641	-0.260986	0.263018	-0.291814	-0.063691	-0.917393
28569		5.510567	-0.349641	8.006657	0.001307	-0.004988	-0.000631	-0.728760	0.312012	-0.257812	0.263001	-0.291818	-0.063741	-0.917393
28570		5.478430	-0.343482	8.029873	0.001289	-0.006132	0.003687	-0.727783	0.302979	-0.256592	0.263046	-0.291844	-0.063789	-0.917368
28571		5.489764	-0.354568	8.010129	-0.002568	-0.005175	0.004712	-0.725342	0.302734	-0.259766	0.263075	-0.291869	-0.063778	-0.917353
28572		5.484446	-0.366760	8.026879	-0.002274	-0.007381	0.004162	-0.732422	0.308105	-0.262451	0.263091	-0.291915	-0.063775	-0.917334
28573		5.480429	-0.386215	8.022959	-0.000634	-0.007691	0.005170	-0.724365	0.311035	-0.260010	0.263129	-0.291961	-0.063790	-0.917308
28574		5.490396	-0.359330	8.026041	-0.002059	-0.010038	0.004016	-0.722656	0.306641	-0.253418	0.263159	-0.292039	-0.063806	-0.917273
28575		5.509807	-0.351322	7.999116	-0.001593	-0.008470	0.005913	-0.724365	0.304688	-0.257812	0.263215	-0.292104	-0.063820	-0.917235
28576		5.479086	-0.377281	8.019225	-0.004755	-0.007457	0.004372	-0.721924	0.308838	-0.261475	0.263230	-0.292160	-0.063790	-0.917215
28577		5.476832	-0.395930	8.005839	-0.002219	-0.006296	0.000723	-0.723389	0.312012	-0.255615	0.263216	-0.292190	-0.063798	-0.917209
28578		5.497584	-0.354354	8.032532	0.003571	-0.009770	0.000152	-0.725342	0.306885	-0.259766	0.263233	-0.292248	-0.063899	-0.917179
28579		5.497766	-0.370645	8.009294	0.000365	-0.009269	-0.000106	-0.730957	0.307373	-0.256836	0.263213	-0.292303	-0.063948	-0.917163
28580		5.483993	-0.378408	8.024111	0.001780	-0.009791	-0.002206	-0.725586	0.306885	-0.269775	0.263180	-0.292363	-0.064030	-0.917148
28581		5.480696	-0.372925	8.002089	0.002308	-0.011213	-0.001808	-0.734375	0.309082	-0.261475	0.263122	-0.292420	-0.064096	-0.917142
28582		5.506814	-0.360067	8.006460	-0.000904	-0.011284	0.000094	-0.732910	0.306396	-0.267822	0.263098	-0.292504	-0.064137	-0.917119
28583		5.513699	-0.350196	7.996781	-0.000829	-0.011405	0.001850	-0.725098	0.308350	-0.265381	0.263072	-0.292580	-0.064158	-0.917101
28584		5.504814	-0.387421	7.989591	0.001130	-0.009907	0.001241	-0.720459	0.311523	-0.266357	0.263063	-0.292634	-0.064205	-0.917083
28585		5.514714	-0.359713	7.992742	0.000231	-0.006732	0.001797	-0.728027	0.311768	-0.259766	0.263069	-0.292655	-0.064231	-0.917073
28586		5.492793	-0.364200	7.997085	0.000016	-0.004074	0.001943	-0.733643	0.311279	-0.251953	0.263090	-0.292658	-0.064261	-0.917064
28587		5.491091	-0.357884	8.026342	-0.000002	-0.007516	0.000850	-0.719727	0.307861	-0.260498	0.263112	-0.292712	-0.064321	-0.917036
28588		5.493931	-0.365276	8.004557	0.000784	-0.011083	-0.000180	-0.723633	0.311523	-0.258301	0.263094	-0.292784	-0.064380	-0.917014
28589		5.520824	-0.344538	8.019924	-0.002269	-0.010250	0.000917	-0.732178	0.299316	-0.257812	0.263095	-0.292864	-0.064409	-0.916986
28590		5.517983	-0.355519	8.026784	-0.003210	-0.007587	0.002754	-0.726074	0.297363	-0.265381	0.263069	-0.292913	-0.064392	-0.916979
28591		5.501994	-0.358078	8.002245	-0.002976	-0.006804	0.003702	-0.720215	0.306885	-0.258789	0.263030	-0.292937	-0.064349	-0.916986
28592		5.505044	-0.357950	7.991845	-0.000217	-0.005431	0.003155	-0.729980	0.311279	-0.259277	0.263054	-0.292952	-0.064368	-0.916973
28593		5.500513	-0.377307	7.988275	-0.002430	-0.004784	0.005194	-0.726807	0.302490	-0.264648	0.263103	-0.292973	-0.064360	-0.916952
28594		5.495195	-0.365914	7.987403	-0.000528	-0.006668	0.002612	-0.729004	0.308105	-0.256104	0.263079	-0.292991	-0.064359	-0.916953
28595		5.509193	-0.351643	8.000491	0.000665	-0.005105	0.002815	-0.722168	0.299072	-0.254395	0.263109	-0.293008	-0.064397	-0.916937
28596		5.500033	-0.380743	8.005066	-0.000939	-0.004854	0.002688	-0.726562	0.308594	-0.259766	0.263104	-0.293020	-0.064403	-0.916934
28597		5.509372	-0.353446	8.008598	0.000509	-0.006010	0.003623	-0.729492	0.303711	-0.274658	0.263135	-0.293041	-0.064431	-0.916916
28598		5.505951	-0.364208	8.015872	-0.001173	-0.006211	0.003900	-0.732178	0.310303	-0.260254	0.263097	-0.293038	-0.064392	-0.916931
28599		5.508859	-0.364275	8.005553	-0.002426	-0.004784	0.005195	-0.729736	0.300781	-0.260010	0.263138	-0.293058	-0.064380	-0.916914
28600		5.506066	-0.366995	8.023983	0.000020	-0.004648	0.004103	-0.730713	0.308594	-0.261475	0.263137	-0.293059	-0.064380	-0.916913
28601		5.519782	-0.368787	8.005775	-0.000664	-0.004131	0.004514	-0.723633	0.304443	-0.259766	0.263167	-0.293062	-0.064381	-0.916904
28602		5.511370	-0.366588	8.003719	-0.001505	-0.003944	0.003573	-0.725830	0.299072	-0.255615	0.263178	-0.293061	-0.064372	-0.916902
28603		5.501229	-0.365377	8.011129	-0.001778	-0.005241	0.003908	-0.733643	0.306641	-0.259033	0.263175	-0.293080	-0.064361	-0.916897
28604		5.499389	-0.375512	8.009025	-0.001582	-0.004397	0.003977	-0.728760	0.306885	-0.257812	0.263190	-0.293092	-0.064356	-0.916889
28605		5.495821	-0.386183	8.016405	0.000316	-0.006281	0.001394	-0.729736	0.308105	-0.257080	0.263191	-0.293119	-0.064392	-0.916878
28606		5.501855	-0.353235	7.989585	-0.002362	-0.007773	0.003699	-0.718262	0.306885	-0.260254	0.263213	-0.293176	-0.064399	-0.916853
28607		5.528807	-0.364290	8.002665	-0.003300	-0.005110	0.005538	-0.717529	0.306396	-0.260010	0.263254	-0.293194	-0.064368	-0.916838
28608		5.495556	-0.367678	8.015322	-0.001110	-0.002830	0.005873	-0.728516	0.303467	-0.256592	0.263308	-0.293178	-0.064353	-0.916829
28609		5.503658	-0.349476	8.008081	-0.002340	-0.004905	0.006953	-0.732178	0.308350	-0.258301	0.263349	-0.293200	-0.064329	-0.916811
28610		5.505267	-0.358454	7.987001	-0.004395	-0.002778	0.006027	-0.727783	0.298340	-0.258057	0.263387	-0.293207	-0.064283	-0.916801
28611		5.495656	-0.372970	8.023339	-0.003632	-0.002843	0.005212	-0.726562	0.295654	-0.268555	0.263373	-0.293199	-0.064225	-0.916812
28612		5.483421	-0.365615	7.991256	-0.003025	-0.003814	0.005205	-0.729004	0.311279	-0.259766	0.263317	-0.293170	-0.064141	-0.916843
28613		5.502689	-0.372783	7.993529	-0.001811	-0.005754	0.005190	-0.734375	0.315186	-0.265869	0.263367	-0.293200	-0.064141	-0.916819
28614		5.513010	-0.376770	7.994170	-0.001968	-0.006085	0.003839	-0.718018	0.307861	-0.259033	0.263395	-0.293225	-0.064136	-0.916803
28615		5.507592	-0.388948	8.011076	-0.003258	-0.004597	0.004258	-0.725098	0.307373	-0.262695	0.263432	-0.293239	-0.064115	-0.916790
28616		5.491780	-0.382915	7.998051	0.000417	-0.002963	0.004242	-0.719238	0.304932	-0.260986	0.263458	-0.293215	-0.064117	-0.916790
28617		5.519868	-0.369144	7.984383	-0.000266	-0.002445	0.004654	-0.723633	0.305664	-0.262207	0.263487	-0.293187	-0.064107	-0.916791
28618		5.539771	-0.367677	7.997852	-0.002260	-0.003879	0.004390	-0.718994	0.311523	-0.260254	0.263498	-0.293181	-0.064077	-0.916792
28619		5.495260	-0.369195	8.018792	-0.004877	-0.001415	0.006511	-0.723389	0.302734	-0.255615	0.263575	-0.293167	-0.064025	-0.916778
28620		5.487337	-0.375238	7.996456	-0.002784	-0.003031	0.006154	-0.724854	0.304199	-0.260010	0.263606	-0.293169	-0.063991	-0.916771
28621		5.500841	-0.385421	8.027534	-0.002979	-0.003875	0.006084	-0.733887	0.312256	-0.250244	0.263627	-0.293171	-0.063948	-0.916768
28622		5.496035	-0.381951	8.006414	-0.003019	-0.003814	0.005206	-0.721680	0.306641	-0.250000	0.263702	-0.293214	-0.063959	-0.916731
28623		5.498431	-0.382163	7.996421	-0.001025	-0.002380	0.005470	-0.732666	0.299072	-0.260010	0.263776	-0.293221	-0.063974	-0.916707
28624		5.495843	-0.392189	7.994810	-0.000638	-0.000118	0.003450	-0.724365	0.307129	-0.257324	0.263729	-0.293165	-0.063935	-0.916741
28625		5.505533	-0.356449	8.009837	0.001864	-0.003548	0.003015	-0.727051	0.314941	-0.262207	0.263758	-0.293155	-0.063973	-0.916733
28626		5.509683	-0.378311	8.008034	-0.000263	-0.002446	0.004654	-0.727295	0.305420	-0.258545	0.263828	-0.293138	-0.063984	-0.916717
28627		5.501120	-0.375976	8.006117	-0.000695	-0.004072	0.003637	-0.726562	0.307617	-0.261475	0.263833	-0.293139	-0.063981	-0.916716
28628		5.492592	-0.396678	8.021845	0.001022	-0.003360	0.002075	-0.727051	0.305420	-0.256592	0.263833	-0.293118	-0.063999	-0.916721
28629		5.480639	-0.372045	8.021239	0.002270	-0.004788	0.000777	-0.725586	0.313232	-0.256592	0.263823	-0.293121	-0.064050	-0.916720
28630		5.494741	-0.373043	8.002731	0.000728	-0.008098	0.001315	-0.724854	0.310791	-0.260742	0.263866	-0.293177	-0.064117	-0.916685
28631		5.492539	-0.374896	8.020842	0.001119	-0.006410	0.001454	-0.723145	0.316406	-0.269043	0.263884	-0.293195	-0.064161	-0.916671
28632		5.496733	-0.388922	8.038980	0.001531	-0.008225	0.001377	-0.722168	0.309326	-0.250732	0.263910	-0.293214	-0.064205	-0.916654
28633		5.493647	-0.375808	8.028390	-0.000602	-0.006547	0.000857	-0.723877	0.305176	-0.255615	0.263948	-0.293267	-0.064262	-0.916622
28634		5.508067	-0.377001	8.009636	0.002062	-0.009648	0.001773	-0.720947	0.312500	-0.255371	0.263951	-0.293327	-0.064324	-0.916598
28635		5.522642	-0.377962	7.990775	0.001491	-0.008164	0.000499	-0.731201	0.300781	-0.252197	0.263998	-0.293380	-0.064406	-0.916562
28636		5.496769	-0.368941	7.985278	0.000697	-0.008611	0.002598	-0.720459	0.304443	-0.255859	0.263976	-0.293441	-0.064442	-0.916546
28637		5.502276	-0.375098	8.014157	-0.001101	-0.009201	0.002407	-0.722412	0.312256	-0.265869	0.263972	-0.293502	-0.064460	-0.916526
28638		5.504120	-0.375441	8.012875	0.000462	-0.009394	0.001651	-0.729004	0.305664	-0.258057	0.263978	-0.293538	-0.064488	-0.916511
28639		5.509303	-0.373915	7.992672	-0.001358	-0.006481	0.001676	-0.724365	0.303467	-0.265625	0.263952	-0.293566	-0.064491	-0.916509
28640		5.484114	-0.380014	8.016068	0.002534	-0.007509	0.001508	-0.723389	0.309082	-0.257812	0.263894	-0.293562	-0.064507	-0.916526
28641		5.513336	-0.365651	8.001556	-0.001225	-0.009018	-0.000226	-0.728516	0.304688	-0.263916	0.263884	-0.293620	-0.064541	-0.916508
28642		5.501227	-0.372823	8.007096	0.001615	-0.007773	0.000973	-0.729736	0.307617	-0.263916	0.263827	-0.293631	-0.064559	-0.916520
28643		5.499474	-0.374444	8.024951	0.000869	-0.010635	-0.000585	-0.721191	0.311279	-0.260986	0.263770	-0.293681	-0.064595	-0.916518
28644		5.525566	-0.361978	8.029203	-0.000648	-0.010502	0.001050	-0.730469	0.311768	-0.252197	0.263788	-0.293746	-0.064634	-0.916489
28645		5.519335	-0.366795	8.005728	-0.001600	-0.011280	0.001798	-0.729248	0.302002	-0.261719	0.263829	-0.293861	-0.064693	-0.916436
28646		5.499328	-0.402221	8.006645	-0.001523	-0.010828	0.001394	-0.724854	0.304688	-0.256592	0.263747	-0.293919	-0.064679	-0.916442
28647		5.505457	-0.361462	7.999752	0.001449	-0.012120	0.000689	-0.728271	0.304443	-0.261475	0.263719	-0.294002	-0.064737	-0.916419
28648		5.515702	-0.365535	8.008765	-0.002003	-0.016410	0.000570	-0.732666	0.308105	-0.264893	0.263645	-0.294128	-0.064749	-0.916399
28649		5.526192	-0.346932	7.999874	-0.005741	-0.014477	-0.000066	-0.737793	0.312012	-0.248047	0.263559	-0.294239	-0.064714	-0.916391
28650		5.508563	-0.381911	7.990817	-0.001121	-0.013732	0.004762	-0.723877	0.304932	-0.261475	0.263628	-0.294402	-0.064784	-0.916313
28651		5.534065	-0.378501	7.983703	-0.001784	-0.012125	0.001732	-0.728271	0.314209	-0.252930	0.263584	-0.294474	-0.064782	-0.916303
28652		5.507493	-0.378487	8.036544	-0.001024	-0.012191	0.000915	-0.733643	0.310059	-0.271729	0.263636	-0.294594	-0.064856	-0.916245
28653		5.528249	-0.377288	7.988254	-0.001679	-0.015175	0.001114	-0.735596	0.302490	-0.262695	0.263559	-0.294674	-0.064843	-0.916242
28654		5.531298	-0.377832	7.986118	-0.002597	-0.015439	0.000582	-0.724609	0.308594	-0.261475	0.263439	-0.294782	-0.064825	-0.916243
28655		5.529579	-0.365034	7.974550	-0.000529	-0.013554	0.000433	-0.728516	0.299072	-0.258545	0.263415	-0.294869	-0.064859	-0.916219
28656		5.528332	-0.367260	7.992083	-0.002887	-0.009216	0.000066	-0.736572	0.316650	-0.260498	0.263296	-0.294910	-0.064823	-0.916243
28657		5.509299	-0.370523	7.986393	0.003071	-0.012377	0.000807	-0.723389	0.308105	-0.257568	0.263331	-0.294998	-0.064922	-0.916198
28658		5.518163	-0.382538	7.984662	-0.000375	-0.012649	-0.000375	-0.726807	0.303223	-0.260742	0.263314	-0.295085	-0.064971	-0.916171
28659		5.551132	-0.382179	7.988449	0.001112	-0.013296	-0.000730	-0.726074	0.313721	-0.262451	0.263232	-0.295155	-0.065006	-0.916170
28660		5.539846	-0.365747	7.975780	0.000624	-0.011933	-0.000247	-0.729980	0.296143	-0.260010	0.263250	-0.295222	-0.065067	-0.916138
28661		5.531202	-0.363563	7.982379	0.000016	-0.010962	-0.000237	-0.735840	0.302490	-0.264160	0.263096	-0.295261	-0.065050	-0.916171
28662		5.539565	-0.352440	7.963227	0.000330	-0.009727	0.000305	-0.732666	0.306641	-0.260498	0.262982	-0.295282	-0.065040	-0.916198
28663		5.530756	-0.373541	7.987697	0.001743	-0.010826	0.000354	-0.735352	0.301514	-0.257324	0.262934	-0.295333	-0.065083	-0.916192
28664		5.534475	-0.372120	7.976781	0.001992	-0.008954	-0.002144	-0.725830	0.310303	-0.262939	0.262811	-0.295365	-0.065117	-0.916215
28665		5.532515	-0.373138	7.994906	0.002599	-0.005909	-0.003223	-0.729736	0.301270	-0.253174	0.262788	-0.295344	-0.065182	-0.916224
28666		5.550320	-0.348601	8.008777	0.001150	-0.012783	-0.002009	-0.733398	0.301514	-0.257812	0.262691	-0.295436	-0.065237	-0.916218
28667		5.544931	-0.360540	7.964578	-0.002630	-0.012452	0.002090	-0.732422	0.305176	-0.254639	0.262605	-0.295522	-0.065215	-0.916216
28668		5.539010	-0.373164	7.990407	-0.001878	-0.008501	0.000201	-0.719482	0.310547	-0.255615	0.262548	-0.295579	-0.065222	-0.916214
28669		5.536217	-0.360398	7.979571	-0.000445	-0.010175	0.002410	-0.736084	0.313965	-0.260010	0.262629	-0.295647	-0.065277	-0.916165
28670		5.545523	-0.341581	7.971429	-0.001929	-0.009529	0.002767	-0.728760	0.309326	-0.257324	0.262656	-0.295713	-0.065293	-0.916134
28671		5.557237	-0.375956	7.968669	-0.000980	-0.008751	0.002015	-0.735107	0.309570	-0.259766	0.262673	-0.295763	-0.065316	-0.916112
28672		5.546153	-0.351774	7.967586	-0.000031	-0.007973	0.001262	-0.733154	0.315918	-0.260010	0.262654	-0.295795	-0.065337	-0.916106
28673		5.540329	-0.371444	7.973274	0.000136	-0.007643	0.002613	-0.738770	0.307373	-0.256348	0.262723	-0.295832	-0.065383	-0.916070
28674		5.550473	-0.367508	7.994064	-0.001708	-0.008171	0.001553	-0.729736	0.309814	-0.251709	0.262674	-0.295885	-0.065382	-0.916068
28675		5.544735	-0.363912	7.981917	0.000509	-0.009398	0.001658	-0.729980	0.305908	-0.261475	0.262707	-0.295962	-0.065444	-0.916028
28676		5.553063	-0.376499	7.980490	-0.001360	-0.010439	0.001881	-0.728760	0.302979	-0.255615	0.262667	-0.296006	-0.065437	-0.916027
28677		5.550266	-0.363597	7.969660	-0.000194	-0.008304	-0.000087	-0.732422	0.303467	-0.257080	0.262603	-0.296038	-0.065451	-0.916034
28678		5.557738	-0.368712	7.988959	-0.000973	-0.008752	0.002017	-0.729492	0.308350	-0.257324	0.262545	-0.296077	-0.065443	-0.916038
28679		5.570287	-0.371129	7.979565	-0.000026	-0.007974	0.001263	-0.730957	0.305420	-0.261475	0.262546	-0.296110	-0.065471	-0.916025
28680		5.559062	-0.346592	7.978624	0.000874	-0.007135	-0.000368	-0.729004	0.310059	-0.248535	0.262484	-0.296104	-0.065484	-0.916044
28681		5.560822	-0.370158	7.995178	-0.000995	-0.009266	0.003301	-0.716797	0.307617	-0.246826	0.262546	-0.296200	-0.065534	-0.915991
28682		5.556600	-0.365718	7.973579	0.000288	-0.006739	0.001804	-0.724121	0.299316	-0.256592	0.262632	-0.296255	-0.065604	-0.915944
28683		5.539319	-0.359891	7.970127	-0.000059	-0.004470	0.001476	-0.733887	0.310791	-0.256104	0.262563	-0.296226	-0.065583	-0.915975
28684		5.554236	-0.376259	7.980234	0.000360	-0.006286	0.001399	-0.736816	0.302979	-0.253418	0.262579	-0.296251	-0.065620	-0.915959
28685		5.546088	-0.350112	7.960369	-0.000322	-0.005767	0.001815	-0.732422	0.313232	-0.249023	0.262508	-0.296271	-0.065613	-0.915974
28686		5.567197	-0.355543	7.952728	-0.000981	-0.004734	0.000948	-0.731689	0.307373	-0.259033	0.262566	-0.296321	-0.065666	-0.915937
28687		5.570322	-0.362731	7.991844	-0.002083	-0.002399	0.001442	-0.728760	0.308105	-0.259033	0.262541	-0.296285	-0.065637	-0.915958
28688		5.571377	-0.370567	7.970931	0.000373	-0.002844	0.002489	-0.730957	0.300537	-0.262207	0.262557	-0.296247	-0.065640	-0.915966
28689		5.542559	-0.339150	7.958402	0.000959	-0.003240	0.000317	-0.729492	0.303223	-0.259033	0.262448	-0.296180	-0.065611	-0.916021
28690		5.570313	-0.340623	7.982437	0.000720	-0.004023	-0.000628	-0.730713	0.303223	-0.252441	0.262375	-0.296142	-0.065611	-0.916054
28691		5.559860	-0.354297	7.958454	0.000459	-0.006409	0.003155	-0.728516	0.312256	-0.259033	0.262353	-0.296170	-0.065622	-0.916050
28692		5.560146	-0.339985	7.998562	-0.000606	-0.007578	0.003437	-0.733887	0.304688	-0.257080	0.262427	-0.296199	-0.065650	-0.916018
28693		5.548687	-0.362830	7.963475	-0.003193	-0.004596	0.004291	-0.726562	0.299805	-0.266602	0.262395	-0.296201	-0.065597	-0.916030
28694		5.553712	-0.346215	7.975068	-0.001145	-0.006154	0.003043	-0.728516	0.306641	-0.253174	0.262314	-0.296148	-0.065533	-0.916075
28695		5.559254	-0.336803	7.966140	-0.001515	-0.004399	0.003999	-0.729004	0.309570	-0.258301	0.262343	-0.296162	-0.065529	-0.916062
28696		5.570817	-0.356107	7.995323	-0.004399	-0.006670	0.005386	-0.732666	0.305664	-0.253906	0.262396	-0.296193	-0.065492	-0.916040
28697		5.546290	-0.354920	7.960591	-0.001716	-0.002315	0.006305	-0.729004	0.306152	-0.250244	0.262417	-0.296182	-0.065457	-0.916040
28698		5.546690	-0.356023	7.960263	-0.001813	-0.002192	0.004549	-0.723633	0.305176	-0.263916	0.262448	-0.296186	-0.065444	-0.916031
28699		5.560397	-0.366246	7.991310	-0.004073	-0.001992	0.007016	-0.733887	0.305420	-0.261963	0.262487	-0.296119	-0.065357	-0.916047
28700		5.554350	-0.355545	7.991106	-0.003298	-0.001545	0.004910	-0.725830	0.313232	-0.250488	0.262456	-0.296063	-0.065277	-0.916080
28701		5.544564	-0.369594	7.958172	-0.002744	0.000473	0.006395	-0.729980	0.309814	-0.261230	0.262606	-0.296053	-0.065278	-0.916040
28702		5.542345	-0.364569	7.988246	-0.003056	-0.000762	0.005856	-0.731445	0.306885	-0.252930	0.262660	-0.295997	-0.065224	-0.916046
28703		5.554531	-0.336433	7.973021	-0.002587	-0.002640	0.006655	-0.734619	0.306885	-0.252197	0.262697	-0.296001	-0.065187	-0.916037
28704		5.542731	-0.344780	7.970051	-0.006769	-0.000491	0.010845	-0.730225	0.305664	-0.257568	0.262753	-0.296004	-0.065076	-0.916028
28705		5.547505	-0.360961	7.979331	-0.007833	-0.001659	0.011128	-0.728516	0.300049	-0.255615	0.262799	-0.295989	-0.064938	-0.916030
28706		5.533111	-0.379682	7.974717	-0.007404	-0.004567	0.014495	-0.727295	0.300049	-0.261475	0.262824	-0.296003	-0.064780	-0.916029
28707		5.538223	-0.388661	8.003940	-0.006381	-0.006264	0.010960	-0.728027	0.310791	-0.253906	0.262805	-0.295998	-0.064636	-0.916046
28708		5.546253	-0.387615	7.964589	-0.006011	-0.008019	0.010003	-0.728760	0.303955	-0.259766	0.262914	-0.296076	-0.064582	-0.915994
28709		5.564076	-0.373885	7.958141	-0.006235	-0.005359	0.010150	-0.725830	0.312744	-0.252686	0.262925	-0.296077	-0.064461	-0.915999
28710		5.542138	-0.403780	7.980626	-0.004366	-0.004321	0.009924	-0.731689	0.304443	-0.248779	0.263077	-0.296115	-0.064428	-0.915945
28711		5.545920	-0.396639	7.981291	-0.003073	-0.005813	0.009494	-0.728027	0.308350	-0.254395	0.263093	-0.296172	-0.064373	-0.915926
28712		5.545741	-0.383321	7.951799	-0.002442	-0.006271	0.008199	-0.725342	0.312256	-0.255859	0.263155	-0.296206	-0.064341	-0.915899
28713		5.541565	-0.394532	7.959663	-0.000143	0.002020	0.003187	-0.730957	0.302734	-0.247803	0.263237	-0.296131	-0.064347	-0.915900
28714		5.548298	-0.361245	7.993796	-0.001478	-0.004979	0.006160	-0.734375	0.307373	-0.261230	0.263200	-0.296171	-0.064311	-0.915900
28715		5.551513	-0.392607	7.980547	-0.003923	-0.005622	0.008562	-0.722656	0.303955	-0.252930	0.263197	-0.296168	-0.064223	-0.915908
28716		5.559807	-0.375160	7.973082	-0.003537	-0.003935	0.008697	-0.727295	0.309814	-0.262207	0.263239	-0.296171	-0.064157	-0.915900
28717		5.543427	-0.392970	7.978317	-0.000077	0.000863	0.007511	-0.724121	0.306641	-0.253418	0.263315	-0.296073	-0.064117	-0.915912
28718		5.553545	-0.388847	7.990735	-0.001783	0.001248	0.005645	-0.733154	0.314697	-0.254639	0.263352	-0.296013	-0.064075	-0.915924
28719		5.552408	-0.398366	7.979639	-0.002624	-0.002580	0.005780	-0.724854	0.312500	-0.259033	0.263428	-0.296022	-0.064058	-0.915900
28720		5.550053	-0.408346	7.977827	0.002085	-0.003234	0.004354	-0.732910	0.310547	-0.262695	0.263523	-0.295983	-0.064095	-0.915883
28721		5.541534	-0.412386	7.955837	0.002618	0.000969	-0.001051	-0.737549	0.305176	-0.258301	0.263478	-0.295874	-0.064108	-0.915930
28722		5.504135	-0.421646	7.968902	0.011018	0.006987	-0.006164	-0.722168	0.298584	-0.254883	0.263319	-0.295681	-0.064192	-0.916032
28723		5.542839	-0.374698	8.010909	0.013587	0.005093	-0.010469	-0.733154	0.308350	-0.256592	0.263138	-0.295489	-0.064330	-0.916137
28724		5.564791	-0.337160	8.008655	0.005584	-0.000331	-0.001776	-0.729492	0.307617	-0.255371	0.263082	-0.295419	-0.064392	-0.916171
28725		5.553818	-0.350705	7.984963	-0.002543	-0.006144	0.006445	-0.727539	0.305664	-0.249023	0.263103	-0.295452	-0.064358	-0.916157
28726		5.552744	-0.399510	7.959477	-0.002522	-0.002702	0.007537	-0.728516	0.313232	-0.261230	0.263131	-0.295475	-0.064316	-0.916144
28727		5.571531	-0.375375	7.955832	0.000229	0.009045	0.009358	-0.722900	0.306641	-0.252197	0.263281	-0.295305	-0.064270	-0.916159
28728		5.527296	-0.351140	7.943102	0.001849	0.019172	0.011868	-0.724854	0.308594	-0.260498	0.263431	-0.295047	-0.064197	-0.916204
28729		5.495831	-0.419354	7.974752	0.010231	0.025763	0.004596	-0.718994	0.308838	-0.251953	0.263536	-0.294641	-0.064212	-0.916304
28730		5.526041	-0.368144	7.989659	0.014873	0.028672	0.002512	-0.718506	0.311279	-0.259277	0.263687	-0.294233	-0.064312	-0.916384
28731		5.517783	-0.366460	8.003889	0.016003	0.036720	0.004417	-0.725586	0.305664	-0.256104	0.263900	-0.293697	-0.064390	-0.916489
28732		5.515715	-0.184200	8.028068	0.006076	0.044222	0.015063	-0.723145	0.310059	-0.261719	0.264080	-0.293135	-0.064254	-0.916627
28733		5.460134	-0.243365	8.011066	-0.017504	0.049640	0.037647	-0.712891	0.312500	-0.251953	0.264505	-0.292587	-0.063764	-0.916714
28734		5.428447	-0.363780	8.052299	-0.015045	0.042815	0.035238	-0.721191	0.306396	-0.259033	0.265007	-0.292162	-0.063388	-0.916730
28735		5.456208	-0.352425	7.996321	-0.013763	0.038968	0.030279	-0.721191	0.309082	-0.260742	0.265287	-0.291730	-0.062984	-0.916815
28736		5.428264	-0.438791	8.020535	-0.012550	0.044023	0.030699	-0.722900	0.306396	-0.259277	0.265607	-0.291235	-0.062585	-0.916907
28737		5.426015	-0.686326	7.975718	0.004747	0.060686	0.022200	-0.721680	0.312256	-0.261963	0.265845	-0.290493	-0.062343	-0.917090
28738		5.362621	-0.826565	7.981833	0.072856	0.073934	-0.040667	-0.720215	0.300781	-0.275391	0.265703	-0.289326	-0.063094	-0.917448
28739		5.393512	-0.429097	8.115869	0.109600	0.065894	-0.083262	-0.728027	0.313721	-0.270264	0.265037	-0.288003	-0.064361	-0.917969
28740		5.374987	-0.226018	8.157309	0.081698	0.028911	-0.066778	-0.726807	0.304932	-0.273926	0.264615	-0.287298	-0.065462	-0.918234
28741		5.423009	-0.287005	8.122373	0.057435	0.006304	-0.043413	-0.724609	0.302490	-0.279785	0.264261	-0.286918	-0.066233	-0.918400
28742		5.342767	-0.401631	8.085774	0.067555	-0.004376	-0.067747	-0.719971	0.306396	-0.273193	0.263648	-0.286570	-0.067231	-0.918612
28743		5.357262	-0.385738	8.056626	0.081102	-0.015197	-0.091331	-0.725098	0.297363	-0.276367	0.262932	-0.286330	-0.068561	-0.918793
28744		5.373948	-0.285249	8.053363	0.098880	-0.019274	-0.113696	-0.728760	0.295166	-0.276855	0.261881	-0.286032	-0.070135	-0.919067
28745		5.429504	-0.091532	8.054291	0.093299	-0.019810	-0.111971	-0.725098	0.286865	-0.278320	0.260820	-0.285765	-0.071638	-0.919336
28746		5.453910	-0.255984	8.040062	0.103858	-0.009721	-0.116606	-0.734863	0.292480	-0.270996	0.259701	-0.285317	-0.073222	-0.919667
28747		5.478456	-0.197455	8.066006	0.111329	0.001823	-0.123188	-0.729736	0.282959	-0.277100	0.258610	-0.284785	-0.074925	-0.920002
28748		5.446916	0.011868	8.075202	0.101634	0.013587	-0.110644	-0.727051	0.275391	-0.279297	0.257587	-0.284106	-0.076399	-0.920378
28749		5.485486	0.128880	8.111362	0.077563	0.016393	-0.079234	-0.728027	0.270020	-0.276611	0.256798	-0.283479	-0.077456	-0.920704
28750		5.390777	0.094229	8.121995	0.050425	0.015675	-0.056187	-0.729980	0.271484	-0.297363	0.256125	-0.282985	-0.078109	-0.920988
28751		5.296047	-0.027313	8.124651	0.036493	-0.008675	-0.045898	-0.733643	0.270020	-0.277100	0.255568	-0.282712	-0.078635	-0.921182
28752		5.114440	-0.145320	8.136235	0.039484	-0.048128	-0.062918	-0.727051	0.278320	-0.290771	0.254714	-0.282998	-0.079395	-0.921265
28753		5.218420	0.033992	8.281244	0.048060	-0.134629	-0.083471	-0.731934	0.266113	-0.279053	0.253825	-0.284155	-0.080664	-0.921044
28754		5.227831	0.258250	8.314970	0.064648	-0.249265	-0.024451	-0.738770	0.263916	-0.274414	0.253340	-0.286680	-0.082218	-0.920258
28755		4.789488	-0.350930	8.615602	0.203439	-0.442652	-0.050843	-0.747314	0.271484	-0.278320	0.252781	-0.290966	-0.086053	-0.918714
28756		5.268691	0.341166	8.799839	0.316687	-0.702911	-0.078210	-0.755127	0.262207	-0.264160	0.252161	-0.297798	-0.092138	-0.916101
28757		5.678599	0.268283	8.849039	0.378609	-1.031849	-0.061925	-0.763428	0.255371	-0.242188	0.251425	-0.308194	-0.099855	-0.912048
28758		5.470531	0.082576	9.097119	0.505567	-1.441806	-0.073628	-0.788818	0.243652	-0.221436	0.250383	-0.322797	-0.110294	-0.906061
28759		5.520159	-0.775186	9.065141	0.838569	-1.943309	-0.266287	-0.807861	0.228516	-0.194580	0.247458	-0.341598	-0.126688	-0.897789
28760		5.606736	-1.864397	8.952600	1.375924	-2.480375	-0.692082	-0.840576	0.205322	-0.154297	0.241159	-0.363752	-0.152522	-0.886715
28761		7.305412	-2.933582	9.366717	2.279654	-2.988617	-1.219790	-0.880127	0.152832	-0.110840	0.231961	-0.387161	-0.192107	-0.871433
28762		9.849246	-5.332474	8.833091	3.581505	-3.084073	-1.920295	-0.928223	0.080078	-0.074463	0.220457	-0.404897	-0.248879	-0.851772
28763		11.637762	-6.853140	6.855467	4.389435	-2.743340	-2.987997	-0.961670	-0.019043	-0.039307	0.201214	-0.411698	-0.317237	-0.830288
28764		11.424164	-8.062423	3.374201	6.042709	-2.397011	-4.048746	-0.982910	-0.165527	-0.001221	0.179832	-0.403414	-0.405126	-0.800494
28765		22.639129	-8.368757	2.335693	7.519136	-2.086794	-1.108891	-0.994629	-0.227295	0.043945	0.195129	-0.399814	-0.488423	-0.750677
28766		18.009196	-8.325178	6.836872	6.533743	1.074816	3.440415	-0.981445	-0.160645	0.009521	0.265632	-0.393076	-0.527587	-0.704686
28767		4.967565	6.135203	8.343492	4.337840	2.031353	2.355701	-0.960693	-0.118164	-0.041016	0.320416	-0.375478	-0.546107	-0.676844
28768		2.745217	-0.813600	7.705622	1.188365	1.776258	0.632496	-0.943115	-0.119629	-0.083740	0.343285	-0.359888	-0.545664	-0.674453
28769		6.263264	-6.081699	8.481743	0.877625	1.821701	0.613709	-0.916016	-0.100586	-0.111084	0.364640	-0.344853	-0.542072	-0.673997
28770		9.926978	-5.862177	9.987033	1.291576	3.240267	2.171344	-0.862549	-0.058105	-0.187988	0.409874	-0.325958	-0.527869	-0.668662
28771		9.138277	-3.631515	8.905848	1.096872	4.670179	3.461624	-0.783691	0.002197	-0.274902	0.472819	-0.303288	-0.497316	-0.661162
28772		7.776520	-3.226087	6.867362	0.809050	5.202298	3.628505	-0.682861	0.053467	-0.353760	0.536529	-0.277121	-0.457663	-0.652599
28773		8.697534	-3.711129	6.315246	0.451099	5.134407	3.464905	-0.577148	0.106934	-0.398193	0.593939	-0.251196	-0.413272	-0.642917
28774		10.940298	-4.407522	7.542812	0.262400	4.956486	3.907386	-0.464600	0.148193	-0.428467	0.649742	-0.228789	-0.364776	-0.626442
28775		14.396625	-4.372953	9.224121	0.346751	4.983630	5.023470	-0.321045	0.204102	-0.430176	0.710054	-0.208906	-0.310993	-0.596209
28776		18.222555	-4.733561	8.093440	1.083807	4.729109	6.259259	-0.222168	0.241211	-0.385498	0.774231	-0.187288	-0.259030	-0.546254
28777		22.767156	-2.344038	5.955609	1.801511	4.402138	6.792776	-0.158691	0.257812	-0.409180	0.834738	-0.160722	-0.211263	-0.482441
28778		21.890999	2.974213	2.040386	1.283177	3.920702	6.453451	-0.042725	0.247559	-0.464844	0.882634	-0.139924	-0.164012	-0.417705
28779		24.086958	2.609500	-2.141227	0.594239	3.174022	5.554178	0.075684	0.233887	-0.485840	0.916263	-0.127652	-0.121716	-0.359657
28780		23.994256	9.090605	-8.656772	1.302078	2.222247	3.037138	0.136475	0.217285	-0.505615	0.934209	-0.107151	-0.096988	-0.326137
28781		22.113735	7.226369	-11.842380	-1.199294	0.558651	0.063650	0.139404	0.238037	-0.497559	0.933393	-0.118888	-0.085370	-0.327650
28782		12.147088	2.233219	0.026839	-0.406275	-1.106034	-1.682368	0.093262	0.265381	-0.493408	0.924400	-0.126287	-0.099012	-0.346024
28783		-7.448840	-17.186649	9.275317	-0.378369	-2.338835	-1.532645	0.026367	0.282715	-0.490723	0.913699	-0.138768	-0.126702	-0.360339
28784		12.508536	-7.259585	9.462162	1.245482	-3.552898	0.465398	-0.036865	0.270264	-0.504150	0.911308	-0.141115	-0.171862	-0.346509
28785		13.718415	14.591346	14.658258	0.179935	-2.467063	-0.279694	-0.084717	0.266113	-0.487549	0.904689	-0.149083	-0.201103	-0.344775
28786		11.564319	-6.460055	10.524529	-0.314075	-1.469338	0.190388	-0.107178	0.278809	-0.477051	0.901072	-0.159394	-0.215934	-0.340640
28787		6.846171	-0.295620	8.949835	-0.054600	-0.820524	0.191760	-0.115723	0.287842	-0.485107	0.899523	-0.163996	-0.224520	-0.336978
28788		6.217919	-2.589955	7.758304	-0.026667	-0.420403	0.238862	-0.129395	0.286377	-0.478027	0.899286	-0.166718	-0.228614	-0.333505
28789		5.064000	-1.457419	8.224848	0.076344	-0.279216	0.139900	-0.125732	0.297852	-0.473877	0.899232	-0.167408	-0.231753	-0.331130
28790		5.395253	-0.390852	8.575691	-0.036778	-0.281586	0.137746	-0.132080	0.287109	-0.471191	0.898912	-0.169370	-0.234451	-0.329097
28791		5.230321	-2.076528	8.054360	-0.083748	-0.261079	0.138661	-0.129639	0.298096	-0.483643	0.898541	-0.171773	-0.236720	-0.327234
28792		4.978407	-2.632998	7.751078	0.078705	-0.246570	-0.063541	-0.137695	0.291504	-0.469727	0.897724	-0.171692	-0.239922	-0.327187
28793		4.742821	-2.080864	7.654663	0.314812	-0.296623	-0.299833	-0.144531	0.284912	-0.479492	0.896274	-0.168455	-0.245151	-0.328963
28794		4.969614	-2.468351	7.656220	0.590724	-0.364036	-0.502146	-0.164062	0.272705	-0.482910	0.894297	-0.161770	-0.252677	-0.331991
28795		5.910327	-1.188261	8.159524	0.731909	-0.295437	-0.564955	-0.175781	0.252441	-0.493652	0.892446	-0.153004	-0.260115	-0.335367
28796		6.225067	0.176192	8.312658	0.517961	-0.118422	-0.422379	-0.189209	0.237549	-0.497803	0.891261	-0.146328	-0.264380	-0.338149
28797		5.821183	-0.038450	8.035564	0.291743	-0.047409	-0.262827	-0.182617	0.236572	-0.495605	0.890529	-0.142390	-0.266593	-0.340018
28798		5.613571	-0.475815	7.936758	0.191020	-0.038900	-0.179309	-0.189697	0.240723	-0.497559	0.889983	-0.139812	-0.268130	-0.341304
28799		5.521438	-0.490224	8.032201	0.148217	-0.061826	-0.170093	-0.188965	0.238281	-0.500732	0.889317	-0.137837	-0.269720	-0.342589
28800		5.214746	-0.746248	8.123731	0.128754	-0.148368	-0.188576	-0.190430	0.229004	-0.498047	0.888237	-0.136384	-0.272219	-0.343993
28801		5.294067	-0.361496	8.280120	0.102900	-0.261267	-0.221163	-0.199219	0.220703	-0.500244	0.886575	-0.135589	-0.275909	-0.345650
28802		5.162257	-0.523507	8.567860	-0.012901	-0.497828	-0.216265	-0.214355	0.216064	-0.494141	0.883893	-0.137112	-0.281703	-0.347242
28803		5.107853	-0.301049	8.996712	-0.015592	-0.917500	-0.246427	-0.233154	0.217773	-0.498779	0.879515	-0.140365	-0.292147	-0.348428
28804		5.604136	0.004222	9.267117	-0.163563	-1.482795	-0.198094	-0.260742	0.229492	-0.482666	0.872806	-0.147847	-0.308000	-0.348549
28805		4.705089	0.052963	10.129742	-0.393828	-2.396133	-0.116182	-0.301270	0.226807	-0.465820	0.861957	-0.162037	-0.332463	-0.346759
28806		4.256655	0.316964	10.559091	-0.708320	-3.719537	0.082149	-0.364502	0.249023	-0.437500	0.844474	-0.185909	-0.368879	-0.340923
28807		4.467718	-2.020260	10.098942	-0.410936	-5.407983	-0.060794	-0.452637	0.260498	-0.384277	0.816419	-0.212529	-0.423422	-0.330159
28808		8.448856	0.116019	11.621285	-0.045162	-6.878510	-0.231541	-0.556641	0.263184	-0.298340	0.775986	-0.239297	-0.492345	-0.313337
28809		13.130786	-5.022869	12.264754	-0.409453	-7.617444	-0.481049	-0.651123	0.262939	-0.184326	0.722563	-0.268970	-0.563652	-0.296403
28810		11.466055	-8.079360	11.404690	-0.185947	-7.065096	-2.137919	-0.744385	0.232666	-0.076660	0.661288	-0.280571	-0.631398	-0.292089
28811		8.522301	-6.407313	9.635838	-1.792313	-6.554644	-3.180899	-0.815430	0.163330	0.051270	0.588911	-0.292940	-0.687255	-0.308303
28812		22.853322	-8.969589	18.722316	-3.266611	-2.365691	-2.513717	-0.854492	0.124756	0.106689	0.545998	-0.303974	-0.699977	-0.345713
28813		4.589367	-12.817302	9.829308	-0.743918	1.943374	-1.653228	-0.857422	0.087646	0.032959	0.552817	-0.286030	-0.689271	-0.370791
28814		-1.775273	-2.876274	6.677589	0.917545	2.110260	-1.154733	-0.839844	0.056885	-0.041504	0.568741	-0.259831	-0.682573	-0.378307
28815		2.069579	-1.373397	8.223120	-0.320915	2.120746	0.482086	-0.810791	0.070557	-0.093506	0.587961	-0.256119	-0.663999	-0.384461
28816		4.664899	-5.120410	8.611773	0.123033	3.207251	1.784269	-0.743896	0.106689	-0.159180	0.623022	-0.254362	-0.634436	-0.380308
28817		6.297233	-0.863126	9.307987	0.807481	4.644056	2.390792	-0.662109	0.138428	-0.251953	0.672493	-0.244425	-0.592946	-0.369357
28818		7.325249	0.792672	8.747189	0.176702	5.720161	2.407269	-0.561523	0.155518	-0.322266	0.724561	-0.233657	-0.536358	-0.364329
28819		8.567924	-0.451834	8.252122	-0.408152	6.263490	1.963783	-0.448730	0.173828	-0.385986	0.771881	-0.221218	-0.470037	-0.366509
28820		10.638001	-2.558044	8.726335	-0.585444	6.269433	1.631319	-0.332764	0.166016	-0.417236	0.812033	-0.206999	-0.400597	-0.370507
28821		15.541920	-3.864394	10.835603	-0.508948	5.800550	1.989580	-0.226807	0.128906	-0.438232	0.846583	-0.194639	-0.332806	-0.366952
28822		23.375137	-6.621884	12.038960	-0.404599	5.748525	3.149599	-0.147217	0.075439	-0.456299	0.881096	-0.184975	-0.261124	-0.348237
28823		26.742134	-3.017674	5.529549	0.018841	5.632300	4.526684	-0.100342	0.065430	-0.490723	0.915604	-0.174249	-0.187469	-0.310100
28824		25.077614	3.184088	-0.224901	0.156906	4.491665	4.804798	0.002441	0.093262	-0.577881	0.941980	-0.165696	-0.125409	-0.263614
28825		28.695353	12.132266	-8.156877	1.366668	3.201442	2.852812	0.124756	0.087158	-0.633301	0.957734	-0.143259	-0.085945	-0.234172
28826		22.276187	15.020874	-22.761526	-0.168231	0.844545	-0.582239	0.151855	0.096191	-0.648438	0.956553	-0.142148	-0.076250	-0.242871
28827		14.526660	-0.816194	4.405908	-0.260177	-3.047500	-3.339938	0.076904	0.109863	-0.670654	0.941519	-0.151078	-0.117616	-0.277280
28828		8.331449	-19.928328	6.364849	1.516155	-2.960460	-1.348295	0.010254	0.089844	-0.703857	0.934411	-0.141350	-0.160082	-0.285080
28829		13.312838	9.156270	13.419357	1.608483	-2.799754	-0.146642	-0.042969	0.058350	-0.727295	0.930381	-0.132156	-0.198602	-0.278358
28830		11.573027	1.820039	11.922247	-0.084770	-2.178898	-0.072301	-0.097168	0.065186	-0.724365	0.924242	-0.140493	-0.223672	-0.275697
28831		8.421721	-1.549454	9.131018	0.220581	-1.310568	0.074214	-0.115723	0.062500	-0.727295	0.921098	-0.142642	-0.239403	-0.271879
28832		5.853671	-2.489434	7.948934	0.236611	-0.861642	-0.024978	-0.142334	0.054688	-0.723145	0.918803	-0.142754	-0.250156	-0.269898
28833		5.903972	-2.025262	7.750846	0.482329	-0.644014	-0.230494	-0.150879	0.032227	-0.729736	0.916827	-0.138652	-0.259577	-0.269859
28834		6.553275	0.291737	8.673180	0.429055	-0.364010	-0.216134	-0.151367	0.025146	-0.728271	0.915640	-0.134252	-0.265564	-0.270288
28835		5.967854	-0.165299	8.460176	0.136839	-0.248661	-0.045727	-0.162109	0.028564	-0.731445	0.914888	-0.133365	-0.268949	-0.269925
28836		5.645447	-1.376266	7.929401	0.073543	-0.264855	-0.043526	-0.173096	0.022949	-0.732910	0.913972	-0.133259	-0.272299	-0.269723
28837		5.632193	-1.213421	7.908646	0.139396	-0.231507	-0.134271	-0.181885	0.023682	-0.725586	0.912961	-0.131978	-0.275638	-0.270383
28838		5.520086	-0.924597	7.968458	0.166670	-0.207748	-0.189813	-0.185303	0.009033	-0.732666	0.911876	-0.130112	-0.278885	-0.271618
28839		5.733082	-0.779410	7.901088	0.194884	-0.173016	-0.212243	-0.184082	0.014648	-0.737549	0.910865	-0.127726	-0.281864	-0.273063
28840		5.744919	-0.499273	7.968214	0.173456	-0.136406	-0.180354	-0.194336	-0.000732	-0.733154	0.910045	-0.125568	-0.284297	-0.274275
28841		5.619098	-0.508276	8.011580	0.096474	-0.169917	-0.144598	-0.197998	0.007568	-0.736816	0.909097	-0.124525	-0.286788	-0.275299
28842		5.623483	-0.731865	7.911968	0.034043	-0.250597	-0.143224	-0.200684	-0.004395	-0.730957	0.907757	-0.124471	-0.289975	-0.276404
28843		5.690283	-0.957891	7.931932	0.025277	-0.354171	-0.224674	-0.207275	-0.003174	-0.729248	0.905728	-0.124577	-0.294428	-0.278299
28844		5.622052	-0.301806	8.144772	0.043913	-0.542017	-0.244036	-0.220215	-0.008545	-0.726074	0.902932	-0.125048	-0.301089	-0.280040
28845		5.586185	-0.083536	8.324065	-0.068873	-0.809017	-0.182374	-0.236816	0.001953	-0.725098	0.899097	-0.127946	-0.310247	-0.281072
28846		5.743846	0.112983	8.438506	-0.191054	-1.200166	-0.062901	-0.259766	0.004883	-0.707520	0.893817	-0.134031	-0.323126	-0.280566
28847		5.747936	0.080015	8.448486	-0.316053	-1.720470	0.077108	-0.291992	0.011963	-0.698242	0.886399	-0.143851	-0.341028	-0.278034
28848		5.523470	1.256136	9.410576	-0.472784	-2.438583	0.346255	-0.333008	0.014160	-0.677246	0.875928	-0.158941	-0.365604	-0.271702
28849		4.680482	0.095251	9.922426	-0.880446	-3.658539	0.803714	-0.402100	0.049072	-0.637695	0.859187	-0.184454	-0.400627	-0.259371
28850		5.005168	-1.241233	11.061861	-0.916980	-5.553893	1.006883	-0.496094	0.081543	-0.564453	0.830362	-0.216817	-0.453891	-0.239736
28851		9.364405	-1.320649	12.502553	-1.186220	-7.240484	1.039198	-0.598145	0.131104	-0.457031	0.785699	-0.255701	-0.520596	-0.215114
28852		13.953567	-3.420475	14.299421	-1.976496	-8.041137	0.383270	-0.690186	0.155518	-0.316895	0.724005	-0.297745	-0.590063	-0.197457
28853		9.834456	-7.752008	12.862111	-3.075721	-7.525228	-1.160189	-0.764404	0.163574	-0.147217	0.650553	-0.333935	-0.651610	-0.201677
28854		9.576290	-5.519604	11.667639	-5.337406	-6.037946	-2.395570	-0.806396	0.157471	0.023926	0.569684	-0.371117	-0.693489	-0.238337
28855		22.888223	-17.735834	20.934719	-3.887656	0.787764	-3.277725	-0.810059	0.104248	0.031250	0.547641	-0.367269	-0.689957	-0.298600
28856		-2.807019	-5.969192	8.829274	-0.098177	4.225016	-3.351352	-0.822754	0.039551	-0.050781	0.569983	-0.322484	-0.674321	-0.341196
28857		-0.242176	-1.590578	7.203555	-0.472102	3.488472	-2.679969	-0.813721	0.008789	-0.125000	0.585301	-0.287931	-0.657035	-0.377921
28858		4.374681	-4.347263	9.076359	-0.705199	4.218444	-0.774841	-0.783691	0.016113	-0.214355	0.612990	-0.266412	-0.624452	-0.404138
28859		3.738448	-1.276637	8.800352	-0.493646	5.109497	0.872334	-0.705811	0.045654	-0.310303	0.654423	-0.250667	-0.578356	-0.417613
28860		5.607283	0.323940	8.206656	-1.144317	5.502949	1.685476	-0.609863	0.090820	-0.385010	0.697722	-0.242839	-0.520291	-0.428380
28861		8.325483	1.125684	9.362958	-1.622880	5.917138	1.754948	-0.498291	0.145264	-0.437012	0.738495	-0.235963	-0.452764	-0.440400
28862		9.078939	-0.305980	9.035846	-1.971870	5.987607	1.596013	-0.375977	0.189941	-0.477295	0.772930	-0.229456	-0.380168	-0.453213
28863		14.158320	-1.743062	11.757780	-1.522551	5.286892	1.909968	-0.274170	0.228760	-0.491455	0.802468	-0.222665	-0.313677	-0.456150
28864		23.900990	-1.352034	14.297896	-1.461443	5.577584	3.046495	-0.168701	0.284180	-0.504150	0.834953	-0.216693	-0.239593	-0.445526
28865		26.006635	0.052207	7.733028	-1.154162	5.977031	3.567685	-0.023926	0.328857	-0.511230	0.866301	-0.205255	-0.159950	-0.426390
28866		26.880739	8.522158	0.555706	-0.649361	4.814648	2.869731	0.095703	0.344971	-0.510254	0.887368	-0.191814	-0.096358	-0.408045
28867		28.968452	9.671521	-8.431332	-0.534524	3.721576	2.473771	0.199219	0.344238	-0.486328	0.901752	-0.181398	-0.046084	-0.389633
28868		25.023644	13.005712	-28.755151	0.789344	0.259375	-0.231728	0.185547	0.330566	-0.504150	0.902495	-0.171073	-0.047409	-0.392414
28869		9.415843	-1.032550	12.486612	1.590724	-3.111636	-2.047310	0.115479	0.315918	-0.524902	0.892855	-0.166965	-0.094586	-0.407414
28870		7.511548	-5.289339	7.218792	2.097035	-3.535359	-0.376357	0.032715	0.288574	-0.566162	0.889947	-0.160899	-0.145352	-0.401220
28871		10.655027	10.864199	12.640392	1.012707	-3.003080	-0.366090	-0.030273	0.264404	-0.575684	0.883991	-0.163909	-0.184451	-0.397079
28872		15.202128	-3.811452	10.834713	0.454623	-2.163381	-0.212523	-0.064697	0.255615	-0.575439	0.878535	-0.169048	-0.210996	-0.393801
28873		8.677383	0.508360	9.504287	0.574538	-1.024557	-0.260258	-0.096680	0.250488	-0.578125	0.875664	-0.167063	-0.225646	-0.392920
28874		6.328585	-0.960786	8.499043	0.472251	-0.524721	-0.304408	-0.103760	0.239258	-0.576172	0.873631	-0.163588	-0.234386	-0.393791
28875		5.928704	-0.017331	8.561151	0.391567	-0.327770	-0.268004	-0.118164	0.231934	-0.584229	0.872125	-0.160117	-0.240488	-0.394874
28876		5.670919	-0.452699	8.346993	0.234121	-0.238203	-0.162370	-0.118408	0.223389	-0.583008	0.871062	-0.158229	-0.244618	-0.395445
28877		5.685319	-0.809358	8.107445	0.164822	-0.197216	-0.135643	-0.129150	0.226562	-0.585449	0.870103	-0.156971	-0.247901	-0.396012
28878		5.508283	-0.862805	7.986958	0.173533	-0.150144	-0.198681	-0.128174	0.220947	-0.587402	0.868983	-0.155186	-0.250836	-0.397324
28879		5.607657	-0.489397	8.034714	0.155283	-0.137237	-0.190297	-0.134033	0.225830	-0.588867	0.867899	-0.153560	-0.253519	-0.398622
28880		5.627582	-0.516227	8.011686	0.121313	-0.135133	-0.142764	-0.139160	0.215576	-0.585449	0.866983	-0.152439	-0.255917	-0.399512
28881		5.636541	-0.446721	7.929084	0.111647	-0.103866	-0.126491	-0.146973	0.215332	-0.587891	0.866223	-0.151317	-0.257894	-0.400314
28882		5.644420	-0.365297	7.959728	0.087543	-0.073128	-0.110706	-0.138184	0.208496	-0.590088	0.865591	-0.150351	-0.259387	-0.401079
28883		5.615098	-0.410626	7.937482	0.061472	-0.066667	-0.097860	-0.154297	0.207275	-0.589355	0.864993	-0.149675	-0.260653	-0.401802
28884		5.545232	-0.428322	7.946401	0.053118	-0.086853	-0.101642	-0.148438	0.203857	-0.589355	0.864291	-0.149178	-0.262102	-0.402554
28885		5.474005	-0.383771	8.036570	0.036596	-0.135681	-0.110991	-0.158447	0.203125	-0.582031	0.863348	-0.149072	-0.264011	-0.403369
28886		5.272323	-0.451744	8.183292	0.030284	-0.247440	-0.147731	-0.167969	0.200439	-0.588623	0.861830	-0.149475	-0.267160	-0.404390
28887		5.188439	-0.228627	8.434695	0.018670	-0.484920	-0.176531	-0.174316	0.200928	-0.585449	0.859329	-0.151102	-0.272852	-0.405308
28888		5.238274	-0.067064	8.764025	-0.025456	-0.856025	-0.150562	-0.189941	0.202637	-0.585205	0.855540	-0.155157	-0.282234	-0.405367
28889		5.239810	-0.608558	9.392720	-0.104225	-1.434169	-0.222270	-0.229004	0.198486	-0.569336	0.849002	-0.162692	-0.297471	-0.405262
28890		4.018817	-0.176255	11.174117	-0.424616	-2.534199	-0.335437	-0.276123	0.210205	-0.551025	0.836564	-0.178661	-0.322774	-0.405039
28891		3.493943	0.597041	11.507956	-1.014381	-4.348744	-0.245847	-0.354492	0.226807	-0.496338	0.814203	-0.209954	-0.363164	-0.401378
28892		4.959366	-1.943279	11.269110	-0.902587	-6.501355	-0.453248	-0.475586	0.242432	-0.411621	0.777325	-0.248894	-0.424705	-0.391717
28893		10.393686	-3.288335	13.420827	-1.483029	-7.675237	-1.047550	-0.595947	0.246094	-0.292725	0.723141	-0.293987	-0.493097	-0.384050
28894		15.517197	-3.973453	14.328839	-3.233336	-6.821604	-2.601233	-0.694824	0.241699	-0.146240	0.653246	-0.338336	-0.546222	-0.400549
28895		15.086488	-1.751549	16.136193	-5.476593	-4.008605	-4.115531	-0.772705	0.201416	-0.008301	0.579036	-0.373255	-0.566159	-0.452617
28896		6.883356	-10.686146	13.217220	-4.987276	2.366389	-5.773443	-0.816650	0.110352	-0.035156	0.537055	-0.353234	-0.544860	-0.538447
28897		-6.641934	-7.143235	3.062677	-1.132629	2.256568	-4.808954	-0.829346	0.011963	-0.060303	0.513869	-0.312094	-0.541920	-0.587247
28898		-2.018063	-3.154387	7.131682	-2.271184	1.427344	-0.366700	-0.825684	0.024658	-0.091797	0.511729	-0.313530	-0.517039	-0.610331
28899		1.081400	-2.867309	9.639711	-1.904033	1.886047	2.860821	-0.787354	0.096680	-0.111572	0.537693	-0.329412	-0.478437	-0.611124
28900		4.012576	5.107279	12.301979	-1.955567	3.172698	3.374698	-0.736816	0.185059	-0.165283	0.573340	-0.337822	-0.427135	-0.612138
28901		4.396525	8.655598	11.542006	-2.411785	4.204062	1.867163	-0.671143	0.244141	-0.210449	0.598673	-0.332151	-0.369545	-0.628254
28902		6.051317	7.306325	11.665706	-2.614388	4.529243	0.699726	-0.607422	0.287598	-0.258057	0.612907	-0.318585	-0.311175	-0.652702
28903		8.127072	6.951556	13.547503	-2.489306	4.544093	1.012079	-0.535889	0.327148	-0.287109	0.627541	-0.303720	-0.251101	-0.671487
28904		12.182869	7.907639	14.996567	-2.726824	4.585327	0.729637	-0.475342	0.358643	-0.313232	0.636215	-0.288088	-0.188666	-0.690391
28905		14.956204	8.188003	12.999028	-3.047350	5.000804	-0.117434	-0.401611	0.402100	-0.336426	0.634237	-0.267955	-0.122303	-0.714832
28906		13.840960	10.071807	10.617083	-3.003175	4.719902	-0.277056	-0.346191	0.447266	-0.344482	0.627281	-0.248326	-0.058496	-0.735820
28907		15.122299	8.819293	5.841696	-1.692020	4.161026	-0.902568	-0.302246	0.462646	-0.355469	0.615658	-0.222058	-0.012856	-0.755970
28908		15.478009	14.287758	0.499590	-2.364975	2.962412	-1.368623	-0.281250	0.495605	-0.341797	0.595788	-0.211562	0.028614	-0.774248
28909		18.654763	12.701737	-10.497790	-1.621924	1.207486	-2.944780	-0.317871	0.480469	-0.327393	0.561932	-0.212604	0.045531	-0.798097
28910		15.981399	10.242798	-4.400121	0.590248	-1.473369	-5.050341	-0.422363	0.434570	-0.324707	0.512733	-0.225398	0.015764	-0.828282
28911		7.130040	-17.847126	10.424549	0.684940	-1.928939	-3.353532	-0.510498	0.392822	-0.308105	0.479712	-0.241223	-0.013248	-0.843512
28912		12.985719	-5.431234	10.218181	1.721857	-2.256730	-0.059830	-0.533203	0.371582	-0.307617	0.483580	-0.254416	-0.045164	-0.836292
28913		6.230466	4.673944	9.763109	0.739059	-1.760066	-0.127014	-0.556152	0.353516	-0.297363	0.483458	-0.268109	-0.063988	-0.830838
28914		10.049842	-2.408439	9.597141	0.757828	-1.451931	0.134636	-0.576904	0.349121	-0.288818	0.486122	-0.278558	-0.080260	-0.824408
28915		7.433115	0.298259	8.907898	0.605962	-0.846293	-0.041291	-0.585938	0.343750	-0.281738	0.486908	-0.283440	-0.091881	-0.821061
28916		6.831566	-0.285212	8.509110	0.518967	-0.390171	-0.164256	-0.591553	0.334961	-0.280762	0.486588	-0.283995	-0.100267	-0.820077
28917		6.346964	0.070893	8.333769	0.313633	-0.085620	-0.155943	-0.600342	0.324463	-0.288330	0.485984	-0.282674	-0.104665	-0.820341
28918		5.644469	-0.205418	8.233390	0.129918	-0.043611	-0.061726	-0.602295	0.326904	-0.284912	0.485746	-0.282158	-0.106593	-0.820412
28919		5.534723	-0.647371	8.111608	0.045640	-0.084993	-0.016832	-0.611572	0.329102	-0.288330	0.485614	-0.282635	-0.107752	-0.820174
28920		5.469750	-0.741768	8.025547	0.026431	-0.108060	-0.051662	-0.609619	0.328125	-0.286621	0.485025	-0.283417	-0.108975	-0.820091
28921		5.569028	-0.657391	7.969542	0.015296	-0.123126	-0.072974	-0.603027	0.321045	-0.280518	0.484155	-0.284390	-0.110251	-0.820098
28922		5.697974	-0.902241	7.912610	0.027411	-0.127313	-0.096525	-0.617920	0.325195	-0.278564	0.483079	-0.285300	-0.111758	-0.820213
28923		5.635511	-0.847571	7.849615	0.035946	-0.121766	-0.101805	-0.616943	0.314209	-0.279541	0.481984	-0.286092	-0.113338	-0.820364
28924		5.559434	-0.900419	7.873100	0.034962	-0.116891	-0.099008	-0.618164	0.318115	-0.274902	0.480918	-0.286843	-0.114866	-0.820515
28925		5.534108	-0.772435	7.888851	0.049332	-0.119776	-0.119687	-0.624512	0.311279	-0.281982	0.479685	-0.287506	-0.116631	-0.820756
28926		5.625125	-0.597793	7.911047	0.045097	-0.142694	-0.118894	-0.621094	0.313232	-0.269043	0.478408	-0.288428	-0.118485	-0.820912
28927		5.748823	-0.626084	7.919711	0.025810	-0.156674	-0.104437	-0.627686	0.316162	-0.262695	0.477186	-0.289629	-0.120171	-0.820955
28928		5.511335	-0.517241	8.075734	0.003023	-0.186289	-0.114071	-0.635010	0.307861	-0.269043	0.475734	-0.291252	-0.121833	-0.820979
28929		5.428471	-0.532839	8.320004	-0.074709	-0.315851	-0.151825	-0.635742	0.304688	-0.266113	0.473406	-0.294604	-0.123603	-0.820864
28930		5.404339	-0.597448	8.417494	-0.150680	-0.566967	-0.172998	-0.648926	0.304443	-0.249512	0.470174	-0.300936	-0.126150	-0.820037
28931		5.620929	-0.352645	8.315040	-0.228189	-0.912572	-0.157112	-0.659912	0.309082	-0.240723	0.466218	-0.311259	-0.129859	-0.817860
28932		5.918758	-0.060332	8.274988	-0.443054	-1.196001	-0.061126	-0.672852	0.308838	-0.213135	0.461852	-0.325822	-0.132623	-0.814213
28933		5.883833	0.263359	8.540100	-0.696083	-1.528921	0.162268	-0.687744	0.315430	-0.172363	0.458013	-0.345489	-0.133777	-0.808062
28934		5.251862	0.627818	9.191850	-1.019812	-2.166782	0.422287	-0.698730	0.332520	-0.121094	0.454019	-0.373644	-0.134100	-0.797668
28935		5.156718	1.370799	10.688951	-1.684300	-3.216411	0.749556	-0.709961	0.354980	-0.044678	0.447725	-0.415995	-0.132020	-0.780424
28936		6.306615	2.687112	11.409663	-3.190176	-4.039585	0.852082	-0.717529	0.395020	0.078369	0.431814	-0.473607	-0.118909	-0.758349
28937		8.152612	0.837609	12.729966	-6.944805	-3.947450	0.560847	-0.701904	0.405029	0.256836	0.388032	-0.546703	-0.070656	-0.738616
28938		11.064194	-3.989258	8.798877	-9.682736	-3.453173	-0.916275	-0.707520	0.362549	0.458008	0.307325	-0.619820	-0.003968	-0.722052
28939		13.519503	-6.670451	4.170110	-11.356488	-2.242783	-2.574282	-0.716553	0.216797	0.635010	0.193020	-0.676363	0.069657	-0.707407
28940		6.147792	-6.076371	6.722075	-9.278962	0.008564	-5.040672	-0.751709	0.013672	0.706055	0.068664	-0.696931	0.108324	-0.705577
28941		8.377836	-2.858054	12.105464	-5.718365	3.137729	-6.723460	-0.815674	-0.192627	0.643066	-0.044910	-0.678335	0.102112	-0.726236
28942		-1.271560	-4.487611	6.834468	-3.522268	3.111257	-4.922733	-0.844727	-0.327148	0.583740	-0.123174	-0.651746	0.090219	-0.742911
28943		-0.519109	-1.923594	9.406967	-2.528065	2.305330	-1.636733	-0.853760	-0.385010	0.510742	-0.161402	-0.627321	0.096702	-0.755690
28944		2.027398	0.743286	12.322371	-1.833718	2.408454	0.876270	-0.872559	-0.375732	0.449951	-0.170263	-0.599058	0.115949	-0.773755
28945		4.255819	6.208551	13.556557	-1.984549	3.345184	1.759188	-0.887695	-0.330811	0.363525	-0.172677	-0.558786	0.141000	-0.798787
28946		5.213262	8.137821	12.816003	-2.123052	4.163494	1.027883	-0.881348	-0.315430	0.266846	-0.184218	-0.509505	0.160077	-0.825132
28947		6.160693	7.734990	12.814314	-1.949900	4.820409	-0.208893	-0.880615	-0.320312	0.148193	-0.207974	-0.454302	0.167331	-0.849916
28948		7.239720	5.748224	12.754824	-2.017549	5.167685	-0.493636	-0.862061	-0.321533	0.030518	-0.234889	-0.393736	0.172007	-0.871902
28949		8.056269	2.936034	12.234143	-2.049791	5.077137	-0.290656	-0.832031	-0.330078	-0.075195	-0.258405	-0.331714	0.177470	-0.889774
28950		11.683602	0.442308	12.054023	-1.526539	4.631565	-0.308611	-0.791992	-0.333008	-0.187012	-0.277847	-0.274942	0.177740	-0.903115
28951		17.087619	1.318814	11.153842	-0.883951	4.358699	0.203011	-0.739502	-0.326904	-0.279297	-0.287735	-0.221389	0.172870	-0.915593
28952		20.879326	-0.706659	4.743196	-0.315178	4.216157	1.296970	-0.691650	-0.289062	-0.355713	-0.282333	-0.168487	0.164508	-0.929966
28953		20.287187	6.239976	-3.957254	0.797110	2.965025	1.311258	-0.635742	-0.298096	-0.412109	-0.271185	-0.133649	0.147285	-0.941756
28954		19.910697	8.464132	-13.639026	-0.248138	0.952872	-0.052596	-0.622803	-0.285400	-0.423096	-0.273896	-0.121399	0.146768	-0.942710
28955		13.461881	6.980324	-6.204688	0.919056	-2.541751	-2.579817	-0.657227	-0.355469	-0.374268	-0.297910	-0.158889	0.140466	-0.930738
28956		7.808926	-16.292825	10.676809	1.352240	-2.613982	-1.179369	-0.674072	-0.390381	-0.329346	-0.304120	-0.196133	0.131909	-0.922845
28957		13.252720	7.503093	12.486864	1.402139	-2.404775	0.123486	-0.708740	-0.403809	-0.285156	-0.295120	-0.228728	0.125044	-0.919212
28958		9.555185	4.532136	10.729006	-0.109557	-1.569112	0.026487	-0.730957	-0.407471	-0.251221	-0.292636	-0.246151	0.132061	-0.914513
28959		8.197722	-2.796279	8.740579	0.258227	-0.819447	0.060221	-0.740479	-0.403076	-0.233643	-0.289803	-0.256250	0.132184	-0.912621
28960		5.735720	-1.554501	7.899937	0.383951	-0.564664	-0.149217	-0.746582	-0.414062	-0.223389	-0.289354	-0.264226	0.129277	-0.910904
28961		6.214032	-0.216503	8.504688	0.514006	-0.360450	-0.244656	-0.746338	-0.421875	-0.216309	-0.289873	-0.270482	0.123828	-0.909659
28962		6.239933	0.230568	8.511495	0.224424	-0.159648	-0.078680	-0.742920	-0.420410	-0.208984	-0.289785	-0.273140	0.121500	-0.909207
28963		6.021049	-0.582021	8.091278	0.039674	-0.097495	0.014671	-0.744141	-0.434570	-0.207764	-0.289360	-0.274281	0.121362	-0.909017
28964		5.488296	-0.728246	8.034824	0.014205	-0.109809	-0.021491	-0.749268	-0.431885	-0.207275	-0.289415	-0.275525	0.121434	-0.908614
28965		5.629304	-0.584723	7.967904	0.078349	-0.126998	-0.106925	-0.749756	-0.431152	-0.205566	-0.290192	-0.277325	0.120546	-0.907936
28966		5.761289	-0.308475	7.968216	0.063372	-0.136232	-0.097516	-0.747559	-0.429688	-0.207520	-0.290900	-0.279161	0.119894	-0.907233
28967		5.541975	-0.518490	8.036418	0.023255	-0.164282	-0.075955	-0.753174	-0.430664	-0.200684	-0.291461	-0.281136	0.119874	-0.906446
28968		5.513230	-0.654973	7.992853	0.019437	-0.200346	-0.102922	-0.752686	-0.439697	-0.189453	-0.292285	-0.283544	0.119933	-0.905422
28969		5.543702	-0.531543	8.001360	0.005704	-0.235510	-0.143458	-0.752197	-0.441650	-0.186523	-0.293561	-0.286357	0.120132	-0.904096
28970		5.453470	-0.422062	8.046321	-0.025556	-0.302764	-0.199234	-0.753174	-0.448242	-0.182373	-0.295475	-0.289895	0.120729	-0.902264
28971		5.707045	-0.508986	7.977949	-0.063599	-0.431686	-0.248851	-0.750732	-0.453369	-0.171875	-0.297884	-0.294811	0.122049	-0.899698
28972		5.741424	-0.261212	7.999908	-0.059725	-0.578825	-0.260038	-0.752441	-0.450684	-0.154053	-0.300165	-0.301398	0.123826	-0.896509
28973		5.806363	-0.073342	8.035440	-0.139399	-0.750647	-0.228798	-0.765625	-0.453613	-0.145020	-0.302107	-0.309538	0.127247	-0.892595
28974		5.892525	-0.090714	7.904016	-0.215572	-0.957525	-0.194927	-0.777344	-0.462158	-0.131836	-0.303600	-0.319605	0.132414	-0.887776
28975		6.172085	0.255016	7.865513	-0.274327	-1.199952	-0.087038	-0.773926	-0.456543	-0.105225	-0.303671	-0.331897	0.139555	-0.882129
28976		5.714340	0.110179	8.360967	-0.322810	-1.654322	0.111217	-0.797119	-0.450439	-0.070557	-0.300864	-0.348557	0.149728	-0.874969
28977		6.087659	0.940473	8.608501	-0.438027	-2.273655	0.373660	-0.809326	-0.444336	-0.042725	-0.294337	-0.370836	0.164530	-0.865319
28978		5.951827	1.607278	8.978124	-0.769010	-3.119912	0.901900	-0.832275	-0.420410	0.027588	-0.281515	-0.399478	0.188247	-0.851898
28979		5.692197	0.588859	9.580690	-1.016516	-4.521255	1.545447	-0.855957	-0.384033	0.117188	-0.259026	-0.439552	0.222202	-0.830858
28980		7.868690	0.737772	11.322662	-1.599164	-5.940159	2.036475	-0.860840	-0.331299	0.235840	-0.229394	-0.488826	0.268314	-0.797769
28981		10.995867	-2.208151	11.223734	-2.410205	-6.767357	1.889420	-0.850586	-0.300293	0.378174	-0.201690	-0.540792	0.321906	-0.750494
28982		12.220003	-3.841340	13.864586	-3.789557	-7.096345	1.022307	-0.795410	-0.294189	0.516846	-0.188213	-0.590743	0.380333	-0.686255
28983		10.566992	-4.906847	10.541841	-5.752954	-6.529262	-0.344449	-0.727783	-0.361084	0.625977	-0.201536	-0.631176	0.439943	-0.606176
28984		13.431463	-8.404098	10.736414	-8.459284	-4.420831	-1.977996	-0.666260	-0.486084	0.658936	-0.257389	-0.649401	0.495984	-0.515780
28985		19.760079	-19.287935	17.548519	-2.922063	2.778294	-3.867537	-0.646484	-0.593262	0.580811	-0.322654	-0.644341	0.473110	-0.506839
28986		-2.774062	-0.854147	8.787000	0.046399	4.923472	-3.922849	-0.644043	-0.684326	0.520264	-0.375246	-0.634317	0.419753	-0.529754
28987		-0.109935	-0.900923	6.353772	-1.767142	3.735212	-3.121372	-0.623535	-0.776855	0.472656	-0.428758	-0.616082	0.388129	-0.534758
28988		5.197180	-7.669762	8.211850	-0.932784	4.039661	-1.183653	-0.655029	-0.866699	0.440186	-0.462866	-0.588632	0.362842	-0.554628
28989		5.805372	-0.987957	9.535230	0.028325	4.991785	1.203606	-0.776367	-0.927979	0.368896	-0.476020	-0.547184	0.341680	-0.597704
28990		6.264083	1.502293	8.973525	-0.717097	5.534878	2.825483	-0.951172	-0.940430	0.202148	-0.481995	-0.487475	0.332165	-0.647855
28991		8.526203	2.642876	9.395904	-0.864885	5.944785	2.784582	-1.076416	-0.874023	-0.063232	-0.487717	-0.420519	0.318942	-0.695393
28992		10.344617	-0.364332	9.190901	-0.777626	6.262806	1.924004	-1.071533	-0.769043	-0.363281	-0.498333	-0.351836	0.296301	-0.734903
28993		14.373035	-3.303475	11.291061	0.032842	6.212162	1.742518	-0.904785	-0.635010	-0.567627	-0.503494	-0.286939	0.263756	-0.771098
28994		20.303795	-4.018956	11.783218	0.071481	5.795041	2.669859	-0.721924	-0.477051	-0.616699	-0.494924	-0.221363	0.235085	-0.806712
28995		27.293620	-5.058350	7.332492	-0.119379	5.370166	3.869046	-0.620850	-0.379639	-0.595459	-0.474415	-0.152573	0.213005	-0.840405
28996		27.953354	0.228910	0.546544	0.345121	4.750507	4.418859	-0.590088	-0.327148	-0.616943	-0.439924	-0.091639	0.188740	-0.873182
28997		27.695003	4.607597	-8.488155	1.260568	3.814077	3.383251	-0.545410	-0.282471	-0.680420	-0.409517	-0.048445	0.157330	-0.897327
28998		26.482256	12.335296	-20.999004	-0.767996	1.851480	1.274696	-0.505615	-0.247070	-0.713867	-0.399087	-0.020982	0.157051	-0.903119
28999		11.238526	3.410353	-7.309553	0.299139	-1.809225	-2.013565	-0.564697	-0.266846	-0.717041	-0.417952	-0.046717	0.161992	-0.892688
29000		3.512489	-16.701318	11.369493	1.403887	-2.740380	-2.725980	-0.639404	-0.327881	-0.691406	-0.441360	-0.090024	0.158766	-0.878573
29001		13.499445	-1.295468	11.000353	2.022764	-3.554114	-0.132899	-0.740234	-0.355225	-0.654297	-0.432504	-0.140346	0.155763	-0.876916
29002		12.714889	12.030420	13.657715	0.285816	-2.705629	-0.351867	-0.806152	-0.353760	-0.606689	-0.429868	-0.172208	0.166501	-0.870537
29003		13.318061	-5.164749	10.659850	0.055351	-1.558306	0.148329	-0.841553	-0.350098	-0.589844	-0.424859	-0.189110	0.174505	-0.867917
29004		6.555536	-1.180114	8.745980	0.121204	-0.786483	0.099558	-0.860107	-0.345703	-0.572510	-0.421813	-0.198067	0.177568	-0.866783
29005		5.736035	-2.019425	8.041349	0.208187	-0.438869	-0.063580	-0.869629	-0.361084	-0.566650	-0.421064	-0.204070	0.177442	-0.865780
29006		5.410810	-0.430215	8.563619	0.253933	-0.262725	-0.171150	-0.870605	-0.356934	-0.563477	-0.421741	-0.208640	0.175618	-0.864733
29007		5.423116	-0.302973	8.576523	0.120844	-0.178406	-0.176531	-0.878662	-0.360107	-0.563477	-0.422999	-0.211608	0.174768	-0.863568
29008		4.867806	-1.687215	7.947455	0.133496	-0.152124	-0.250750	-0.876709	-0.374512	-0.556396	-0.425077	-0.214521	0.173440	-0.862096
29009		4.556939	-2.115253	7.754733	0.383165	-0.242662	-0.406567	-0.885986	-0.388672	-0.552490	-0.427951	-0.220064	0.169480	-0.860062
29010		5.018580	-0.947452	8.119835	0.492717	-0.331288	-0.431936	-0.892578	-0.413818	-0.542725	-0.430576	-0.227180	0.164739	-0.857820
29011		5.653342	-0.891442	8.223878	0.506098	-0.370208	-0.373995	-0.903076	-0.422363	-0.541260	-0.432425	-0.234648	0.160214	-0.855734
29012		5.822299	-0.338701	8.426852	0.362495	-0.255025	-0.269309	-0.896729	-0.433838	-0.540039	-0.433777	-0.239883	0.156900	-0.854211
29013		5.755931	-0.214014	8.214296	0.237902	-0.171655	-0.219460	-0.902100	-0.439941	-0.527100	-0.435121	-0.243448	0.154609	-0.852936
29014		5.552182	-0.437564	8.027203	0.185974	-0.122637	-0.202741	-0.905518	-0.445801	-0.524658	-0.436530	-0.246173	0.152651	-0.851785
29015		5.316991	-0.286684	8.206212	0.135527	-0.140277	-0.191567	-0.906738	-0.455811	-0.518799	-0.437936	-0.248787	0.151360	-0.850533
29016		5.313132	0.245109	8.352397	0.039580	-0.237837	-0.136475	-0.911621	-0.457764	-0.523682	-0.438865	-0.251804	0.151791	-0.849089
29017		5.414147	0.862741	8.657386	-0.160626	-0.430220	-0.026488	-0.922363	-0.446045	-0.517822	-0.438881	-0.255551	0.155741	-0.847244
29018		4.905230	0.000346	8.754675	-0.345837	-0.787235	0.102212	-0.930908	-0.448486	-0.500244	-0.437398	-0.261793	0.164005	-0.844541
29019		5.433754	-0.313286	8.559799	-0.319520	-1.266464	0.051827	-0.955322	-0.437988	-0.474121	-0.435295	-0.273287	0.174410	-0.839889
29020		5.661516	-0.003507	8.959644	-0.409762	-1.774043	0.155198	-0.980469	-0.425781	-0.442139	-0.431137	-0.289282	0.188806	-0.833540
29021		4.491661	0.739632	10.516449	-0.748664	-2.726759	0.409682	-1.017334	-0.401855	-0.375732	-0.422921	-0.312509	0.212610	-0.823573
29022		3.877676	-0.530956	10.739066	-0.973177	-4.264313	0.704584	-1.070801	-0.361328	-0.279785	-0.407550	-0.348893	0.247517	-0.806791
29023		5.156310	-0.899931	12.006089	-0.881798	-6.342965	0.838963	-1.132080	-0.329834	-0.114746	-0.382065	-0.404562	0.291449	-0.778084
29024		10.578842	-3.260800	13.990349	-0.875017	-7.857298	0.554958	-1.156982	-0.306641	0.090820	-0.350702	-0.472657	0.338684	-0.734096
29025		13.729636	-7.275298	14.589989	-1.251231	-8.003607	-0.675078	-1.126221	-0.320557	0.285156	-0.328696	-0.540871	0.379327	-0.674928
29026		6.938806	-7.267640	10.476778	-1.875106	-7.442516	-2.211304	-1.041748	-0.389648	0.445801	-0.323174	-0.603573	0.408707	-0.603504
29027		14.303566	-5.147354	17.740157	-4.169328	-5.788526	-3.300668	-0.933350	-0.512695	0.515381	-0.348416	-0.644191	0.436494	-0.522587
29028		15.868061	-15.631657	19.214043	-2.991591	1.688711	-2.860328	-0.842529	-0.613770	0.422607	-0.399897	-0.634601	0.424814	-0.506850
29029		-2.890010	-7.390281	7.747470	0.246794	4.126560	-2.533278	-0.761475	-0.706055	0.358398	-0.435195	-0.621762	0.381603	-0.527633
29030		-0.181380	-0.312989	7.501678	-0.233258	3.484506	-1.875974	-0.714111	-0.774658	0.320068	-0.465498	-0.605435	0.348986	-0.543110
29031		4.982696	-4.597151	8.695114	-1.302415	4.037887	-0.082625	-0.719482	-0.814697	0.260986	-0.492902	-0.569665	0.333045	-0.567107
29032		6.288203	-3.881617	8.893506	-0.332818	4.919437	1.347728	-0.740967	-0.804443	0.187256	-0.505204	-0.525643	0.313838	-0.608255
29033		8.871057	-0.626115	9.045627	-0.593161	5.678825	2.267388	-0.765137	-0.800049	0.085938	-0.512637	-0.467924	0.296281	-0.656101
29034		9.479613	-0.167946	8.510607	-0.988076	6.081965	2.338043	-0.804688	-0.806885	-0.054199	-0.519985	-0.401090	0.277896	-0.701082
29035		11.717245	-2.775793	8.675620	-1.057737	6.035806	2.114136	-0.791260	-0.792969	-0.232178	-0.525956	-0.332253	0.257432	-0.739396
29036		15.349173	-3.734241	10.767637	-0.378814	5.777915	2.457930	-0.734863	-0.770508	-0.362305	-0.521703	-0.266987	0.232184	-0.776296
29037		21.060290	-3.041442	12.646685	-0.422906	5.782842	3.706210	-0.689697	-0.708496	-0.487061	-0.501925	-0.195946	0.209925	-0.815848
29038		25.543603	-0.611202	9.543830	-0.228049	5.913776	4.753830	-0.615967	-0.612061	-0.652100	-0.467202	-0.120474	0.185714	-0.855990
29039		26.023153	2.864453	0.108511	0.111628	5.106657	4.494420	-0.491211	-0.521729	-0.730957	-0.429062	-0.055278	0.160688	-0.887147
29040		31.373297	12.519977	-12.506300	0.574798	3.228538	2.789310	-0.405273	-0.469727	-0.770996	-0.403558	-0.016583	0.138612	-0.904242
29041		26.492402	7.789791	-23.502229	0.011227	0.188447	0.723148	-0.375732	-0.469971	-0.760010	-0.395692	-0.013103	0.137618	-0.907919
29042		7.068551	-0.988927	5.475925	0.460150	-3.307749	-1.583214	-0.422119	-0.515625	-0.729248	-0.407518	-0.055589	0.148334	-0.899353
29043		6.313707	-15.175562	6.817642	1.780187	-3.969464	-0.941038	-0.489746	-0.568848	-0.689453	-0.408926	-0.110913	0.147655	-0.893687
29044		12.429590	10.450969	12.749023	2.028780	-4.206217	0.280520	-0.559082	-0.629883	-0.631592	-0.394583	-0.167519	0.146693	-0.891472
