// Start Time: Unknown
// Update Rate: 40.0Hz
// Filter Profile: human (46.1)
// Firmware Version: 4.6.0
PacketCounter	SampleTimeFine	Acc_X	Acc_Y	Acc_Z	Gyr_X	Gyr_Y	Gyr_Z	Mag_X	Mag_Y	Mag_Z	Quat_q0	Quat_q1	Quat_q2	Quat_q3
37856		5.625308	1.278160	7.866937	0.005212	-0.003248	-0.002300	-0.636963	-0.224121	-0.290771	-0.212039	-0.311081	0.000524	-0.926427
37857		5.600368	1.280226	7.840297	0.002200	-0.004588	0.000130	-0.629883	-0.217041	-0.286865	-0.212029	-0.311140	0.000511	-0.926410
37858		5.630721	1.289458	7.840204	0.002015	-0.003186	-0.000229	-0.636475	-0.219971	-0.285645	-0.212019	-0.311183	0.000499	-0.926398
37859		5.614424	1.281755	7.834006	0.001374	-0.002358	-0.000093	-0.636230	-0.219238	-0.284424	-0.212015	-0.311214	0.000488	-0.926388
37860		5.608682	1.280466	7.854378	0.002236	-0.003470	-0.001036	-0.636963	-0.215088	-0.276611	-0.212019	-0.311262	0.000467	-0.926371
37861		5.624557	1.273756	7.853096	0.004301	-0.004396	-0.001311	-0.640625	-0.220947	-0.284668	-0.212017	-0.311325	0.000422	-0.926350
37862		5.614639	1.278945	7.844821	0.003845	-0.004971	-0.000816	-0.641357	-0.220459	-0.287842	-0.212012	-0.311394	0.000387	-0.926329
37863		5.626256	1.275658	7.851570	0.004208	-0.003696	-0.001490	-0.640381	-0.213135	-0.279785	-0.212013	-0.311449	0.000341	-0.926310
37864		5.616088	1.281091	7.843434	0.004558	-0.003563	-0.003283	-0.638916	-0.216553	-0.286133	-0.212033	-0.311504	0.000285	-0.926287
37865		5.623532	1.270962	7.839188	0.006273	-0.004623	-0.001766	-0.633301	-0.219482	-0.281738	-0.212029	-0.311575	0.000217	-0.926264
37866		5.606882	1.288376	7.834305	0.006716	-0.005192	-0.003379	-0.639160	-0.225098	-0.286865	-0.212042	-0.311655	0.000141	-0.926234
37867		5.612475	1.273408	7.842700	0.004978	-0.004109	-0.002612	-0.640381	-0.210205	-0.284180	-0.212055	-0.311717	0.000083	-0.926210
37868		5.610792	1.283012	7.837357	0.005633	-0.003796	-0.001630	-0.639160	-0.221924	-0.282227	-0.212046	-0.311775	0.000028	-0.926193
37869		5.620187	1.274911	7.857014	0.003803	-0.002011	-0.001043	-0.651367	-0.219238	-0.287354	-0.212045	-0.311808	-0.000014	-0.926182
37870		5.606102	1.259467	7.855506	0.003803	-0.002011	-0.001043	-0.634277	-0.219482	-0.285400	-0.212037	-0.311838	-0.000050	-0.926174
37871		5.614194	1.301625	7.841993	0.004803	-0.006788	-0.001578	-0.639404	-0.213623	-0.289062	-0.212038	-0.311914	-0.000085	-0.926148
37872		5.611852	1.271405	7.828379	0.002552	-0.004459	-0.001661	-0.633057	-0.222412	-0.276611	-0.212040	-0.311953	-0.000097	-0.926134
37873		5.627590	1.275313	7.846101	0.002773	-0.004744	-0.002468	-0.634521	-0.224609	-0.281738	-0.212065	-0.312015	-0.000127	-0.926107
37874		5.608539	1.287163	7.854376	0.003965	-0.000478	-0.003196	-0.638672	-0.216553	-0.285400	-0.212098	-0.312022	-0.000182	-0.926098
37875		5.623754	1.280882	7.853490	0.003731	-0.001336	-0.003507	-0.639404	-0.226807	-0.277588	-0.212116	-0.312026	-0.000220	-0.926092
37876		5.617561	1.283036	7.837488	0.003918	-0.002739	-0.003147	-0.637695	-0.223633	-0.283936	-0.212152	-0.312071	-0.000274	-0.926069
37877		5.620053	1.286519	7.860770	0.004259	-0.001439	-0.001539	-0.631104	-0.212891	-0.291260	-0.212163	-0.312080	-0.000321	-0.926063
37878		5.618191	1.285064	7.836703	0.002928	-0.002042	-0.001218	-0.639648	-0.227295	-0.286133	-0.212152	-0.312054	-0.000328	-0.926074
37879		5.614159	1.289175	7.844469	0.003383	-0.001468	-0.001714	-0.639893	-0.210693	-0.288574	-0.212184	-0.312055	-0.000371	-0.926067
37880		5.627719	1.277760	7.856155	0.003590	-0.002897	-0.003638	-0.642334	-0.213867	-0.286865	-0.212167	-0.312058	-0.000381	-0.926069
37881		5.613428	1.265242	7.818160	0.003497	-0.002196	-0.003818	-0.644287	-0.215820	-0.281982	-0.212158	-0.312064	-0.000396	-0.926070
37882		5.623794	1.283653	7.863555	0.004875	0.000667	-0.004187	-0.630615	-0.214111	-0.287842	-0.212145	-0.312070	-0.000440	-0.926071
37883		5.611172	1.273740	7.849582	0.003859	-0.000923	-0.004493	-0.643066	-0.220947	-0.277588	-0.212175	-0.312036	-0.000469	-0.926075
37884		5.616972	1.287357	7.847744	0.004340	0.001939	-0.002755	-0.637695	-0.223877	-0.292236	-0.212171	-0.312052	-0.000524	-0.926071
37885		5.599740	1.280420	7.842137	0.003558	0.001208	-0.002750	-0.636230	-0.209717	-0.292969	-0.212223	-0.311974	-0.000565	-0.926085
37886		5.610208	1.287768	7.868619	0.002087	-0.000955	-0.002560	-0.634766	-0.218506	-0.282227	-0.212184	-0.311901	-0.000533	-0.926118
37887		5.617314	1.266666	7.845799	0.004608	-0.001310	-0.003331	-0.631348	-0.218018	-0.279541	-0.212205	-0.311912	-0.000581	-0.926110
37888		5.608941	1.274535	7.861608	0.004247	-0.002584	-0.002655	-0.635742	-0.224121	-0.284424	-0.212225	-0.311951	-0.000622	-0.926092
37889		5.607170	1.273131	7.837466	0.002929	-0.002042	-0.001218	-0.636475	-0.225098	-0.285645	-0.212276	-0.311950	-0.000656	-0.926081
37890		5.615963	1.278227	7.839874	0.005778	-0.002240	-0.001498	-0.641357	-0.210449	-0.294189	-0.212327	-0.311952	-0.000724	-0.926068
37891		5.614584	1.274385	7.852049	0.003010	-0.003889	-0.002154	-0.641846	-0.223389	-0.286133	-0.212230	-0.311895	-0.000670	-0.926110
37892		5.615032	1.285989	7.870469	0.004214	-0.003702	-0.001488	-0.632080	-0.217529	-0.283447	-0.212246	-0.311921	-0.000701	-0.926097
37893		5.618397	1.268220	7.855341	0.003452	-0.004461	-0.003767	-0.638916	-0.217041	-0.281250	-0.212277	-0.311945	-0.000719	-0.926082
37894		5.606690	1.268723	7.859666	0.005031	-0.007079	-0.002379	-0.642578	-0.221436	-0.285156	-0.212231	-0.312048	-0.000733	-0.926058
37895		5.620057	1.294497	7.854918	0.004684	-0.007208	-0.000586	-0.640625	-0.224854	-0.281982	-0.212204	-0.312124	-0.000746	-0.926039
37896		5.622098	1.271427	7.852174	0.002617	-0.006281	-0.000310	-0.643799	-0.217529	-0.290771	-0.212234	-0.312213	-0.000767	-0.926002
37897		5.609877	1.284734	7.839190	0.005185	-0.004375	-0.001133	-0.638916	-0.221924	-0.284668	-0.212162	-0.312193	-0.000759	-0.926025
37898		5.626302	1.265304	7.855186	0.005312	-0.003960	-0.002120	-0.632080	-0.224121	-0.288574	-0.212184	-0.312223	-0.000804	-0.926010
37899		5.616179	1.270760	7.847000	0.004436	-0.003990	-0.002295	-0.635254	-0.220459	-0.290771	-0.212304	-0.312174	-0.000855	-0.925999
37900		5.605839	1.286872	7.857868	0.004984	-0.004119	-0.002611	-0.646240	-0.226074	-0.281494	-0.212347	-0.312109	-0.000879	-0.926011
37901		5.613072	1.287255	7.872732	0.004436	-0.003991	-0.002295	-0.641357	-0.219238	-0.282227	-0.212376	-0.312217	-0.000936	-0.925968
37902		5.618444	1.274328	7.844800	0.003855	-0.004979	-0.000811	-0.640137	-0.218994	-0.293457	-0.212317	-0.312294	-0.000937	-0.925955
37903		5.616897	1.283445	7.839393	0.004089	-0.004120	-0.000502	-0.635986	-0.220459	-0.284424	-0.212281	-0.312199	-0.000918	-0.925995
37904		5.639468	1.265525	7.834610	0.005219	-0.003261	-0.002301	-0.638184	-0.216309	-0.288574	-0.212303	-0.312206	-0.000958	-0.925988
37905		5.612014	1.273678	7.839994	0.005251	-0.002145	-0.003469	-0.627930	-0.219238	-0.282471	-0.212251	-0.312146	-0.000960	-0.926020
37906		5.620814	1.279034	7.842336	0.002716	-0.002936	-0.003811	-0.633057	-0.217285	-0.281494	-0.212350	-0.312127	-0.000985	-0.926004
37907		5.629648	1.284155	7.844690	0.004356	-0.002145	-0.001360	-0.637939	-0.212158	-0.285889	-0.212318	-0.312144	-0.000999	-0.926005
37908		5.613061	1.277007	7.838703	0.002635	-0.001089	-0.002877	-0.641113	-0.217773	-0.284668	-0.212165	-0.312097	-0.000941	-0.926057
37909		5.625629	1.289441	7.852264	0.003417	-0.000358	-0.002883	-0.633789	-0.223877	-0.281494	-0.212090	-0.312089	-0.000938	-0.926076
37910		5.615520	1.270914	7.842974	0.003966	-0.000487	-0.003199	-0.636475	-0.217529	-0.290771	-0.212220	-0.312100	-0.001014	-0.926043
37911		5.617196	1.287830	7.849049	0.004514	-0.000616	-0.003515	-0.629395	-0.214844	-0.281982	-0.212210	-0.311965	-0.001011	-0.926090
37912		5.600363	1.280920	7.843204	0.003090	-0.000517	-0.003373	-0.641357	-0.218994	-0.284180	-0.212193	-0.311928	-0.001005	-0.926107
37913		5.618014	1.266430	7.846964	0.004937	-0.001159	-0.002844	-0.640381	-0.220215	-0.295410	-0.212119	-0.311950	-0.001028	-0.926116
37914		5.615475	1.286415	7.861110	0.002743	-0.000644	-0.001580	-0.638184	-0.213135	-0.285400	-0.212127	-0.311755	-0.000999	-0.926180
37915		5.609604	1.264573	7.843782	0.005202	0.000816	-0.003703	-0.638428	-0.214111	-0.281738	-0.211962	-0.311707	-0.000983	-0.926234
37916		5.585521	1.280121	7.860610	0.004654	0.000944	-0.003387	-0.631836	-0.214355	-0.277832	-0.211798	-0.311726	-0.000980	-0.926265
37917		5.615285	1.279642	7.841723	0.004811	-0.001573	-0.001856	-0.633057	-0.212891	-0.282715	-0.211697	-0.311800	-0.000991	-0.926264
37918		5.623757	1.285011	7.844289	0.004421	0.000084	-0.003696	-0.631836	-0.219238	-0.290527	-0.211593	-0.311766	-0.000973	-0.926299
37919		5.615827	1.269382	7.858666	0.006817	-0.000687	-0.003482	-0.636719	-0.219727	-0.280518	-0.211714	-0.311602	-0.001010	-0.926326
37920		5.593562	1.292687	7.826026	0.006067	-0.000304	-0.004644	-0.642090	-0.214600	-0.285645	-0.211713	-0.311664	-0.001085	-0.926306
37921		5.598254	1.288678	7.854046	0.005380	-0.001737	-0.004455	-0.641113	-0.216797	-0.282227	-0.211521	-0.311671	-0.001072	-0.926347
37922		5.613429	1.282298	7.853226	0.000145	0.000380	-0.003271	-0.633545	-0.209961	-0.284424	-0.211388	-0.311702	-0.001038	-0.926367
37923		5.607284	1.270922	7.855033	0.004749	0.000241	-0.003206	-0.622070	-0.217285	-0.284912	-0.211204	-0.311633	-0.000982	-0.926432
37924		5.591522	1.292919	7.838051	0.003533	-0.001096	-0.004985	-0.639160	-0.225342	-0.282227	-0.211466	-0.311491	-0.000990	-0.926420
37925		5.613392	1.286001	7.852647	0.004706	-0.002021	-0.003152	-0.636963	-0.216553	-0.284912	-0.211582	-0.311569	-0.001090	-0.926367
37926		5.622437	1.278241	7.872618	0.003545	0.000052	-0.003871	-0.641113	-0.222656	-0.281250	-0.211515	-0.311530	-0.001085	-0.926396
37927		5.606069	1.247771	7.865372	0.005784	0.001797	-0.005189	-0.628418	-0.213623	-0.285400	-0.211529	-0.311596	-0.001190	-0.926370
37928		5.606195	1.278737	7.854541	0.006659	0.005869	-0.008704	-0.646240	-0.219238	-0.290283	-0.211572	-0.311412	-0.001225	-0.926422
37929		5.607933	1.301280	7.848983	0.003420	0.010054	-0.005749	-0.635254	-0.218750	-0.285156	-0.211473	-0.311231	-0.001247	-0.926506
37930		5.590714	1.267956	7.879105	0.003485	0.004197	-0.000708	-0.626953	-0.223633	-0.282715	-0.211455	-0.311139	-0.001260	-0.926541
37931		5.592279	1.273783	7.866417	0.004921	-0.001127	-0.000558	-0.639404	-0.219482	-0.290283	-0.211704	-0.311106	-0.001340	-0.926495
37932		5.607744	1.267454	7.865408	0.005237	-0.002116	-0.001182	-0.630859	-0.219482	-0.283936	-0.211659	-0.311024	-0.001341	-0.926533
37933		5.594572	1.281173	7.852955	0.005628	0.000269	-0.003031	-0.638428	-0.216553	-0.287109	-0.211737	-0.310978	-0.001393	-0.926530
37934		5.611521	1.280393	7.839357	0.006620	-0.000438	-0.004958	-0.635010	-0.220947	-0.279297	-0.211632	-0.310934	-0.001414	-0.926569
37935		5.598556	1.292414	7.863314	0.006937	-0.001428	-0.005582	-0.645752	-0.213135	-0.284668	-0.211672	-0.311047	-0.001517	-0.926522
37936		5.602884	1.301501	7.873777	0.004911	-0.002277	-0.001671	-0.634277	-0.215332	-0.279785	-0.211293	-0.311122	-0.001468	-0.926583
37937		5.596912	1.303577	7.857588	0.005323	-0.003968	-0.002113	-0.637207	-0.218262	-0.291016	-0.211155	-0.311227	-0.001475	-0.926579
37938		5.575488	1.270823	7.870570	0.002874	-0.004274	0.001126	-0.641113	-0.216797	-0.288574	-0.211118	-0.311123	-0.001416	-0.926623
37939		5.590960	1.277219	7.851776	0.003992	-0.004570	-0.001790	-0.634277	-0.223389	-0.284912	-0.210977	-0.311107	-0.001378	-0.926660
37940		5.598170	1.288342	7.885523	0.005514	-0.005371	-0.001749	-0.635010	-0.218994	-0.289062	-0.211118	-0.311137	-0.001444	-0.926618
37941		5.603218	1.288711	7.839991	0.006265	-0.005753	-0.000587	-0.631104	-0.215576	-0.283691	-0.211132	-0.311083	-0.001447	-0.926633
37942		5.602865	1.271873	7.869353	0.004976	-0.004092	-0.000320	-0.634277	-0.222412	-0.284912	-0.211074	-0.311080	-0.001431	-0.926647
37943		5.598629	1.289412	7.859351	0.005335	-0.002820	-0.001000	-0.625000	-0.218262	-0.281250	-0.211180	-0.311077	-0.001486	-0.926624
37944		5.593388	1.278514	7.860483	0.005862	-0.005251	-0.003542	-0.634766	-0.217285	-0.289795	-0.211326	-0.311093	-0.001528	-0.926585
37945		5.615403	1.285346	7.857035	0.007963	-0.005069	-0.004988	-0.642334	-0.212158	-0.291260	-0.211326	-0.311016	-0.001552	-0.926611
37946		5.596724	1.287397	7.846005	0.006357	-0.002418	-0.004098	-0.638672	-0.218994	-0.287354	-0.211038	-0.310928	-0.001504	-0.926706
37947		5.594750	1.297273	7.840710	0.005123	-0.003721	-0.003591	-0.632324	-0.222900	-0.286865	-0.211007	-0.310916	-0.001520	-0.926717
37948		5.600231	1.282050	7.849464	0.003254	-0.003042	-0.001838	-0.639648	-0.221191	-0.288574	-0.211197	-0.310859	-0.001548	-0.926693
37949		5.613388	1.294400	7.862552	0.003552	-0.003994	-0.000177	-0.645752	-0.227539	-0.289307	-0.211185	-0.310836	-0.001546	-0.926704
37950		5.614168	1.295123	7.861876	0.003552	-0.003994	-0.000177	-0.649414	-0.221680	-0.287598	-0.211262	-0.310859	-0.001598	-0.926678
37951		5.598144	1.287638	7.855606	0.002896	-0.004315	-0.001156	-0.632080	-0.221191	-0.288818	-0.211109	-0.310936	-0.001593	-0.926687
37952		5.607171	1.292714	7.857797	0.004257	-0.002602	-0.002652	-0.636719	-0.220703	-0.286621	-0.211250	-0.310833	-0.001616	-0.926690
37953		5.609950	1.285411	7.862102	0.001964	-0.001381	-0.001571	-0.634033	-0.224854	-0.283203	-0.211277	-0.310791	-0.001613	-0.926697
37954		5.603636	1.286939	7.846233	0.003063	-0.001641	-0.002203	-0.633057	-0.219238	-0.283203	-0.211449	-0.310810	-0.001677	-0.926652
37955		5.597951	1.275683	7.847766	0.004161	-0.001901	-0.002835	-0.645996	-0.222656	-0.288330	-0.211472	-0.310816	-0.001702	-0.926645
37956		5.602320	1.284337	7.858262	0.004489	-0.001741	-0.002345	-0.642090	-0.220947	-0.281738	-0.211415	-0.310829	-0.001732	-0.926653
37957		5.609019	1.284946	7.873509	0.005068	-0.000760	-0.003832	-0.635986	-0.228027	-0.286621	-0.211351	-0.310925	-0.001786	-0.926635
37958		5.587501	1.294505	7.858182	0.004586	-0.002443	-0.002162	-0.634766	-0.219238	-0.287354	-0.211568	-0.310908	-0.001882	-0.926592
37959		5.598844	1.291462	7.865145	0.003255	-0.003044	-0.001837	-0.637939	-0.216064	-0.286621	-0.211566	-0.310855	-0.001873	-0.926610
37960		5.574128	1.279789	7.856321	0.001936	-0.002493	-0.000399	-0.640137	-0.213623	-0.288086	-0.211421	-0.310827	-0.001813	-0.926652
37961		5.607252	1.280846	7.860417	0.001046	-0.008864	0.000900	-0.638184	-0.217041	-0.291260	-0.211183	-0.310856	-0.001691	-0.926697
37962		5.599544	1.301289	7.857937	0.005711	-0.006780	-0.001381	-0.641602	-0.219727	-0.288330	-0.211097	-0.310803	-0.001664	-0.926734
37963		5.605906	1.275265	7.847265	0.003533	-0.006301	-0.002401	-0.639404	-0.224609	-0.277832	-0.211036	-0.310826	-0.001650	-0.926741
37964		5.619362	1.277242	7.841218	0.004383	-0.002194	-0.003641	-0.642334	-0.215088	-0.279297	-0.211086	-0.310990	-0.001747	-0.926674
37965		5.622163	1.281271	7.864267	0.004893	-0.004589	-0.003898	-0.636475	-0.216064	-0.286865	-0.210869	-0.311156	-0.001741	-0.926668
37966		5.607868	1.279258	7.845213	0.004026	-0.003467	-0.002959	-0.642090	-0.220947	-0.291504	-0.210802	-0.311121	-0.001712	-0.926695
37967		5.599852	1.276583	7.841922	0.005385	-0.001755	-0.004457	-0.638184	-0.219971	-0.286621	-0.210806	-0.311036	-0.001739	-0.926722
37968		5.602187	1.281095	7.865230	0.007169	-0.000583	-0.005282	-0.636719	-0.219482	-0.289551	-0.210818	-0.311003	-0.001802	-0.926731
37969		5.613012	1.279093	7.872397	0.006292	-0.000614	-0.005456	-0.636475	-0.220703	-0.283203	-0.210861	-0.310904	-0.001841	-0.926754
37970		5.587059	1.292196	7.865220	0.004163	-0.001905	-0.002836	-0.639160	-0.223877	-0.284180	-0.210873	-0.310932	-0.001876	-0.926742
37971		5.604542	1.290851	7.851262	0.003043	-0.003951	-0.004426	-0.640381	-0.227539	-0.280273	-0.210944	-0.310986	-0.001924	-0.926707
37972		5.590595	1.275701	7.849926	0.004616	-0.001335	-0.003335	-0.635498	-0.218506	-0.286865	-0.211037	-0.311097	-0.002039	-0.926649
37973		5.609952	1.277127	7.859890	0.005176	-0.000312	-0.002540	-0.633789	-0.225586	-0.294434	-0.211019	-0.311028	-0.002051	-0.926676
37974		5.603275	1.290198	7.862966	0.004730	-0.002080	-0.005435	-0.644531	-0.214355	-0.290527	-0.211247	-0.310847	-0.002113	-0.926685
37975		5.601774	1.286723	7.875305	0.003383	-0.002638	-0.002825	-0.639404	-0.225342	-0.284180	-0.211035	-0.310799	-0.002041	-0.926749
37976		5.600150	1.285152	7.851007	0.003673	-0.004742	-0.002275	-0.637207	-0.222412	-0.286133	-0.211098	-0.310870	-0.002095	-0.926711
37977		5.596421	1.300358	7.877344	0.003576	-0.004041	-0.002458	-0.644531	-0.215088	-0.281982	-0.211137	-0.310877	-0.002117	-0.926700
37978		5.604170	1.278814	7.854305	0.002353	-0.004189	-0.000837	-0.646973	-0.224365	-0.286621	-0.210898	-0.310992	-0.002053	-0.926716
37979		5.608420	1.299837	7.847009	0.001148	-0.004381	-0.001499	-0.633057	-0.219238	-0.286865	-0.210849	-0.311055	-0.002054	-0.926706
37980		5.598935	1.291522	7.856407	0.003355	-0.003750	-0.001653	-0.629883	-0.225342	-0.294189	-0.210879	-0.311007	-0.002041	-0.926715
37981		5.591132	1.288209	7.853082	0.002709	-0.002918	-0.001520	-0.635010	-0.226807	-0.290527	-0.211102	-0.310814	-0.002064	-0.926729
37982		5.591576	1.289028	7.852632	0.003818	-0.002025	-0.001042	-0.639648	-0.220459	-0.287109	-0.211254	-0.310718	-0.002119	-0.926726
37983		5.619685	1.293747	7.865238	0.000840	-0.002234	0.000234	-0.632568	-0.219727	-0.285156	-0.211201	-0.310696	-0.002080	-0.926746
37984		5.614310	1.271194	7.847873	0.003943	-0.001616	-0.002031	-0.637695	-0.226318	-0.283447	-0.211227	-0.310660	-0.002093	-0.926752
37985		5.602067	1.271457	7.852713	0.004234	-0.003720	-0.001480	-0.637695	-0.217529	-0.282715	-0.211317	-0.310724	-0.002158	-0.926710
37986		5.606133	1.293089	7.845432	0.004358	-0.003311	-0.002469	-0.645020	-0.215820	-0.288086	-0.211232	-0.310779	-0.002151	-0.926711
37987		5.590288	1.283904	7.875826	0.005139	-0.002580	-0.002480	-0.637451	-0.217285	-0.279053	-0.211046	-0.310784	-0.002121	-0.926752
37988		5.595206	1.271000	7.848259	0.004589	-0.002449	-0.002164	-0.629883	-0.219971	-0.290039	-0.210948	-0.310885	-0.002127	-0.926740
37989		5.612237	1.291314	7.872233	0.004590	-0.002449	-0.002164	-0.628418	-0.221680	-0.284912	-0.211033	-0.310760	-0.002136	-0.926762
37990		5.595966	1.273412	7.847326	0.004164	-0.001910	-0.002837	-0.645020	-0.219971	-0.285645	-0.211160	-0.310707	-0.002173	-0.926751
37991		5.592093	1.278045	7.854915	0.005237	-0.003282	-0.002296	-0.633789	-0.217529	-0.284668	-0.211045	-0.310767	-0.002185	-0.926757
37992		5.614512	1.271220	7.869179	0.005113	-0.003691	-0.001307	-0.644287	-0.217041	-0.286377	-0.210999	-0.310769	-0.002183	-0.926767
37993		5.597311	1.287858	7.864596	0.002409	-0.001972	-0.003181	-0.635742	-0.214600	-0.286865	-0.210860	-0.310783	-0.002144	-0.926794
37994		5.600247	1.280739	7.868815	0.003702	-0.003637	-0.003446	-0.637695	-0.213135	-0.272461	-0.210778	-0.310754	-0.002103	-0.926823
37995		5.594148	1.282559	7.852715	0.004041	-0.002320	-0.001847	-0.633301	-0.217773	-0.278320	-0.210565	-0.310946	-0.002091	-0.926807
37996		5.600809	1.285007	7.831246	0.002701	-0.004077	-0.002629	-0.642090	-0.223145	-0.286133	-0.210541	-0.311038	-0.002086	-0.926781
37997		5.598049	1.276463	7.856083	0.005858	-0.005225	-0.001255	-0.649658	-0.225342	-0.291260	-0.210510	-0.311092	-0.002130	-0.926770
37998		5.588246	1.281443	7.847692	0.002978	-0.006135	0.000207	-0.635986	-0.212158	-0.287354	-0.210439	-0.311119	-0.002135	-0.926777
37999		5.597912	1.285910	7.849484	0.001427	-0.006443	0.001341	-0.634521	-0.222900	-0.285645	-0.210292	-0.311100	-0.002015	-0.926817
38000		5.620843	1.278166	7.863533	0.002454	-0.004895	-0.000650	-0.638184	-0.218750	-0.284912	-0.210364	-0.311099	-0.002020	-0.926801
38001		5.614902	1.279659	7.847368	0.004041	-0.002321	-0.001848	-0.633789	-0.227051	-0.284668	-0.210320	-0.311100	-0.002021	-0.926811
38002		5.597761	1.296432	7.842713	0.005335	-0.003987	-0.002113	-0.637695	-0.218018	-0.281494	-0.210473	-0.311113	-0.002105	-0.926772
38003		5.607667	1.288451	7.862269	0.002891	-0.004278	0.001133	-0.638428	-0.218506	-0.283203	-0.210377	-0.311180	-0.002077	-0.926771
38004		5.600151	1.284794	7.858817	0.003112	-0.004572	0.000327	-0.638184	-0.213623	-0.288818	-0.210298	-0.311229	-0.002054	-0.926772
38005		5.599360	1.269677	7.852011	0.003343	-0.003708	0.000632	-0.638428	-0.225342	-0.285889	-0.210161	-0.311175	-0.001979	-0.926822
38006		5.612621	1.282210	7.864915	0.004457	-0.004019	-0.002285	-0.634766	-0.220215	-0.283203	-0.210239	-0.311191	-0.002035	-0.926799
38007		5.596551	1.274880	7.858761	0.003564	-0.004002	-0.000174	-0.632080	-0.214844	-0.292969	-0.210242	-0.311214	-0.002036	-0.926790
38008		5.618392	1.280617	7.855464	0.003359	-0.003757	-0.001652	-0.638916	-0.218262	-0.291748	-0.210241	-0.311068	-0.001973	-0.926839
38009		5.604670	1.265038	7.854151	0.003919	-0.002731	-0.000859	-0.639160	-0.223877	-0.288818	-0.210200	-0.310977	-0.001947	-0.926879
38010		5.604336	1.279075	7.836171	0.004822	-0.001591	-0.001862	-0.637207	-0.217041	-0.284912	-0.210252	-0.310930	-0.001990	-0.926883
38011		5.591885	1.290372	7.859990	0.004360	-0.003319	-0.002470	-0.645996	-0.219971	-0.278320	-0.210198	-0.310937	-0.001983	-0.926893
38012		5.618799	1.269198	7.847207	0.003909	-0.003889	-0.001968	-0.631348	-0.223145	-0.281738	-0.210063	-0.311097	-0.002007	-0.926870
38013		5.610029	1.289880	7.845339	0.004150	-0.001868	-0.000555	-0.643555	-0.221436	-0.289551	-0.210157	-0.311103	-0.002048	-0.926847
38014		5.602834	1.273952	7.859610	0.004802	-0.003908	-0.004080	-0.647217	-0.225586	-0.281250	-0.210141	-0.311091	-0.002071	-0.926854
38015		5.625152	1.269492	7.837029	0.006048	-0.007792	-0.001996	-0.637451	-0.220459	-0.287842	-0.210090	-0.311271	-0.002142	-0.926805
38016		5.605051	1.276698	7.857583	0.003679	-0.004754	-0.002272	-0.644531	-0.222168	-0.290771	-0.210106	-0.311251	-0.002139	-0.926808
38017		5.609664	1.285272	7.867888	0.003846	-0.000922	-0.002219	-0.642578	-0.223389	-0.286865	-0.210076	-0.311189	-0.002153	-0.926836
38018		5.606087	1.279191	7.856439	0.005440	-0.005901	-0.005321	-0.632812	-0.223145	-0.284424	-0.210102	-0.311235	-0.002204	-0.926815
38019		5.606708	1.281169	7.855673	0.007035	-0.002170	-0.005414	-0.634766	-0.219971	-0.290283	-0.210219	-0.311220	-0.002287	-0.926793
38020		5.598355	1.289744	7.871429	0.005166	-0.001481	-0.003658	-0.631592	-0.212158	-0.287842	-0.210267	-0.311119	-0.002305	-0.926816
38021		5.611298	1.281012	7.846826	0.003640	-0.000679	-0.003697	-0.639893	-0.223633	-0.277832	-0.210224	-0.311012	-0.002257	-0.926862
38022		5.598711	1.292262	7.870763	0.004800	-0.002702	-0.000688	-0.633789	-0.217041	-0.281738	-0.210206	-0.311129	-0.002309	-0.926826
38023		5.612084	1.283115	7.845921	0.003263	-0.003059	-0.001835	-0.636719	-0.217773	-0.287354	-0.210181	-0.311149	-0.002291	-0.926825
38024		5.598327	1.278504	7.863483	0.003681	-0.004757	-0.002270	-0.642334	-0.223633	-0.285645	-0.210155	-0.311131	-0.002268	-0.926837
38025		5.617716	1.292814	7.855303	0.004682	-0.004319	-0.003089	-0.636719	-0.214600	-0.283691	-0.210161	-0.311172	-0.002306	-0.926822
38026		5.605030	1.264412	7.871388	0.002681	-0.005195	-0.001451	-0.643311	-0.217041	-0.287842	-0.210071	-0.311201	-0.002253	-0.926833
38027		5.617054	1.292073	7.830109	0.004461	-0.004025	-0.002284	-0.642090	-0.218018	-0.283936	-0.209963	-0.311204	-0.002236	-0.926856
38028		5.626656	1.284567	7.849855	0.004617	-0.001351	-0.003342	-0.632568	-0.226318	-0.293213	-0.209885	-0.311221	-0.002248	-0.926868
38029		5.601643	1.273370	7.841372	0.004495	-0.001758	-0.002352	-0.645020	-0.220703	-0.288086	-0.210060	-0.311085	-0.002288	-0.926874
38030		5.612837	1.281419	7.867241	0.003814	-0.003192	-0.002152	-0.629883	-0.220947	-0.282715	-0.209991	-0.311089	-0.002290	-0.926889
38031		5.600729	1.270923	7.853225	0.004716	-0.002054	-0.003157	-0.635986	-0.214111	-0.283691	-0.210087	-0.311073	-0.002320	-0.926872
38032		5.609472	1.276221	7.855507	0.003824	-0.002033	-0.001044	-0.636230	-0.219482	-0.292725	-0.209989	-0.311065	-0.002285	-0.926897
38033		5.595631	1.260774	7.854342	0.005022	-0.002999	-0.001493	-0.635742	-0.218018	-0.283203	-0.210000	-0.310965	-0.002280	-0.926928
38034		5.612148	1.293943	7.860486	0.002485	-0.003794	-0.001820	-0.634033	-0.217041	-0.290771	-0.209979	-0.310985	-0.002256	-0.926926
38035		5.600110	1.283435	7.846426	0.006145	-0.002157	-0.003303	-0.636963	-0.215332	-0.285645	-0.209987	-0.310891	-0.002262	-0.926956
38036		5.603151	1.276708	7.850559	0.004463	-0.004028	-0.002284	-0.640869	-0.220947	-0.284180	-0.209912	-0.310892	-0.002243	-0.926973
38037		5.601423	1.286060	7.845058	0.004233	-0.004893	-0.002586	-0.634521	-0.216553	-0.283936	-0.209885	-0.310948	-0.002259	-0.926960
38038		5.600472	1.282404	7.857146	0.003585	-0.004059	-0.002454	-0.640869	-0.220947	-0.281738	-0.209861	-0.310957	-0.002239	-0.926962
38039		5.614735	1.271308	7.868576	0.003355	-0.004925	-0.002757	-0.645752	-0.223389	-0.290527	-0.209832	-0.311039	-0.002251	-0.926941
38040		5.614967	1.285277	7.850103	0.003882	-0.006165	-0.001898	-0.639404	-0.230225	-0.290283	-0.209801	-0.311055	-0.002258	-0.926943
38041		5.614182	1.281304	7.862129	0.003023	-0.003875	0.000146	-0.641602	-0.211426	-0.281982	-0.209922	-0.311023	-0.002292	-0.926926
38042		5.615147	1.271251	7.842493	0.003905	-0.005058	-0.003074	-0.635498	-0.215576	-0.282959	-0.209747	-0.311094	-0.002252	-0.926942
38043		5.608958	1.284224	7.845185	0.005816	-0.002323	-0.003793	-0.635498	-0.219482	-0.283936	-0.209708	-0.311101	-0.002264	-0.926949
38044		5.624347	1.289398	7.862923	0.005925	-0.001864	-0.002500	-0.635498	-0.218262	-0.286865	-0.209716	-0.311096	-0.002294	-0.926948
38045		5.610515	1.263544	7.842907	0.005487	-0.002487	-0.004280	-0.634521	-0.222656	-0.282227	-0.209736	-0.311061	-0.002310	-0.926956
38046		5.607983	1.284332	7.856686	0.005189	-0.000383	-0.004837	-0.640625	-0.224854	-0.286865	-0.209826	-0.311057	-0.002365	-0.926936
38047		5.596991	1.289691	7.849065	0.003419	-0.000390	-0.002895	-0.636963	-0.225830	-0.287354	-0.209876	-0.311026	-0.002396	-0.926935
38048		5.607959	1.287103	7.856251	0.005289	-0.001085	-0.004651	-0.635742	-0.222900	-0.286377	-0.209994	-0.310987	-0.002456	-0.926922
38049		5.605756	1.296704	7.851028	0.003708	-0.003657	-0.003444	-0.634277	-0.214111	-0.286133	-0.210067	-0.310976	-0.002471	-0.926909
38050		5.605267	1.269296	7.862165	0.003969	-0.000524	-0.003212	-0.639893	-0.222656	-0.289795	-0.210014	-0.310914	-0.002450	-0.926941
38051		5.634073	1.292358	7.844269	0.002519	-0.001529	-0.001888	-0.641846	-0.220459	-0.283936	-0.210034	-0.310856	-0.002445	-0.926957
38052		5.600581	1.276772	7.833255	0.005069	-0.000790	-0.003847	-0.639404	-0.212158	-0.289551	-0.210000	-0.310871	-0.002479	-0.926959
38053		5.600341	1.289275	7.851962	0.004541	0.000449	-0.004706	-0.645752	-0.217773	-0.287598	-0.209889	-0.310784	-0.002461	-0.927013
38054		5.601855	1.295270	7.839063	0.003100	0.000606	-0.002276	-0.638184	-0.222412	-0.286621	-0.209769	-0.310751	-0.002453	-0.927052
38055		5.606823	1.290788	7.867289	0.002520	-0.001529	-0.001888	-0.640137	-0.215088	-0.293213	-0.209796	-0.310725	-0.002452	-0.927054
38056		5.607353	1.280724	7.847980	0.004148	-0.003034	-0.001663	-0.645752	-0.214600	-0.285645	-0.209706	-0.310645	-0.002416	-0.927101
38057		5.613613	1.294184	7.845439	0.004828	-0.001600	-0.001865	-0.637939	-0.216797	-0.282715	-0.209524	-0.310663	-0.002413	-0.927137
38058		5.603758	1.297423	7.873997	0.004369	-0.003332	-0.002468	-0.637939	-0.222412	-0.278564	-0.209462	-0.310699	-0.002413	-0.927138
38059		5.615339	1.283776	7.861985	0.005478	-0.002435	-0.001996	-0.650146	-0.217285	-0.290527	-0.209453	-0.310781	-0.002466	-0.927113
38060		5.610759	1.290450	7.833110	0.004061	-0.002391	-0.004132	-0.635498	-0.215576	-0.292236	-0.209310	-0.310771	-0.002467	-0.927148
38061		5.592536	1.278541	7.840190	0.003291	-0.001961	-0.003010	-0.645020	-0.219971	-0.291260	-0.209320	-0.310670	-0.002424	-0.927180
38062		5.601428	1.283786	7.842346	0.004249	-0.003737	-0.001476	-0.628662	-0.220215	-0.292969	-0.209243	-0.310651	-0.002421	-0.927204
38063		5.597700	1.288152	7.849899	0.003170	-0.002366	-0.002019	-0.637451	-0.226074	-0.281494	-0.209390	-0.310524	-0.002384	-0.927213
38064		5.602457	1.285736	7.841291	0.003490	-0.003365	-0.002637	-0.629883	-0.221191	-0.285400	-0.209463	-0.310583	-0.002423	-0.927177
38065		5.607444	1.283314	7.832518	0.002811	-0.004799	-0.002435	-0.630615	-0.223145	-0.291016	-0.209573	-0.310574	-0.002405	-0.927155
38066		5.608417	1.282333	7.868657	0.002670	0.001142	-0.002951	-0.638428	-0.220215	-0.291992	-0.209724	-0.310441	-0.002401	-0.927166
38067		5.602692	1.271146	7.870466	0.005249	-0.003303	-0.002298	-0.628662	-0.218018	-0.285156	-0.209724	-0.310388	-0.002408	-0.927184
38068		5.587845	1.279852	7.870649	0.004291	-0.001527	-0.003831	-0.631592	-0.215088	-0.281982	-0.209804	-0.310342	-0.002407	-0.927181
38069		5.609146	1.286146	7.867514	0.004500	-0.001767	-0.002353	-0.643066	-0.223389	-0.283447	-0.209776	-0.310342	-0.002402	-0.927187
38070		5.602648	1.287753	7.851677	0.002971	-0.000964	-0.002392	-0.636475	-0.217773	-0.291748	-0.209765	-0.310373	-0.002422	-0.927179
38071		5.607180	1.285416	7.843215	0.004600	-0.002469	-0.002166	-0.643311	-0.217529	-0.287598	-0.209747	-0.310302	-0.002413	-0.927207
38072		5.590746	1.277917	7.837469	0.002730	-0.001772	-0.000409	-0.637695	-0.218262	-0.285645	-0.209630	-0.310291	-0.002391	-0.927237
38073		5.602255	1.274416	7.844431	0.001271	-0.003939	-0.000189	-0.638672	-0.216797	-0.286377	-0.209585	-0.310300	-0.002347	-0.927244
38074		5.622026	1.275196	7.854147	0.003409	-0.000337	-0.000613	-0.631836	-0.225098	-0.288330	-0.209508	-0.310268	-0.002333	-0.927273
38075		5.599528	1.266363	7.869429	0.004480	-0.002873	-0.001175	-0.632080	-0.218750	-0.284912	-0.209641	-0.310230	-0.002343	-0.927255
38076		5.603243	1.287649	7.862134	0.003059	-0.001607	0.000078	-0.633789	-0.219727	-0.278809	-0.209655	-0.310202	-0.002320	-0.927262
38077		5.602975	1.290016	7.825242	0.002710	-0.002877	0.000769	-0.642090	-0.215820	-0.281250	-0.209646	-0.310260	-0.002304	-0.927244
38078		5.602539	1.284161	7.874077	0.004810	-0.002709	-0.000688	-0.634277	-0.214844	-0.284180	-0.209502	-0.310325	-0.002311	-0.927255
38079		5.605894	1.265836	7.859370	0.001713	-0.004536	-0.001798	-0.633545	-0.216553	-0.282471	-0.209461	-0.310339	-0.002264	-0.927260
38080		5.622473	1.298846	7.865267	0.004031	-0.003443	-0.000671	-0.634766	-0.217285	-0.283203	-0.209428	-0.310362	-0.002250	-0.927260
38081		5.613117	1.268713	7.837260	0.002951	-0.002071	-0.001214	-0.640625	-0.219482	-0.281738	-0.209406	-0.310365	-0.002233	-0.927264
38082		5.602488	1.284477	7.848234	0.003272	-0.003071	-0.001832	-0.637939	-0.218018	-0.285400	-0.209356	-0.310421	-0.002237	-0.927256
38083		5.605432	1.288643	7.871285	0.006251	-0.002872	-0.003120	-0.633301	-0.224609	-0.288818	-0.209328	-0.310432	-0.002265	-0.927259
38084		5.607534	1.294964	7.857871	0.004942	-0.002367	-0.003963	-0.636963	-0.220215	-0.291016	-0.209475	-0.310389	-0.002289	-0.927240
38085		5.612164	1.292847	7.849297	0.004051	-0.002339	-0.001849	-0.640137	-0.222412	-0.281982	-0.209495	-0.310331	-0.002283	-0.927255
38086		5.610903	1.278161	7.842912	0.004280	-0.001472	-0.001549	-0.640137	-0.218506	-0.285400	-0.209491	-0.310370	-0.002307	-0.927242
38087		5.596874	1.273852	7.860790	0.005152	-0.002606	-0.002484	-0.641846	-0.213867	-0.285645	-0.209442	-0.310386	-0.002324	-0.927248
38088		5.597485	1.275286	7.860123	0.004914	-0.004639	-0.003889	-0.643799	-0.224854	-0.288086	-0.209324	-0.310422	-0.002327	-0.927263
38089		5.606500	1.280781	7.862128	0.003393	-0.002670	-0.002823	-0.635254	-0.221680	-0.282715	-0.209345	-0.310428	-0.002345	-0.927256
38090		5.615470	1.275325	7.845388	0.006252	-0.002875	-0.003120	-0.643066	-0.217041	-0.286865	-0.209392	-0.310459	-0.002385	-0.927235
38091		5.603437	1.275797	7.850181	0.004134	-0.004146	-0.000483	-0.639648	-0.227051	-0.294678	-0.209278	-0.310483	-0.002374	-0.927253
38092		5.595591	1.283509	7.865755	0.003273	-0.003073	-0.001831	-0.637451	-0.219727	-0.281982	-0.209376	-0.310416	-0.002374	-0.927253
38093		5.609855	1.272674	7.877237	0.005675	-0.005012	-0.002727	-0.633545	-0.215332	-0.280762	-0.209368	-0.310483	-0.002397	-0.927232
38094		5.615809	1.288224	7.837752	0.005125	-0.004879	-0.002410	-0.636230	-0.218750	-0.287842	-0.209336	-0.310538	-0.002396	-0.927221
38095		5.607395	1.267668	7.864870	0.003925	-0.003910	-0.001962	-0.639893	-0.215088	-0.281250	-0.209338	-0.310524	-0.002383	-0.927225
38096		5.590557	1.273034	7.841172	0.002917	-0.005510	-0.002243	-0.628174	-0.217529	-0.286133	-0.209244	-0.310598	-0.002362	-0.927222
38097		5.599881	1.278283	7.842987	0.005235	-0.004415	-0.001119	-0.638916	-0.218750	-0.281982	-0.209300	-0.310578	-0.002347	-0.927216
38098		5.624366	1.276365	7.844140	0.004576	-0.004747	-0.002092	-0.637939	-0.217285	-0.284668	-0.209263	-0.310640	-0.002354	-0.927203
38099		5.606520	1.275707	7.869813	0.006025	-0.003746	-0.003420	-0.636963	-0.218506	-0.290283	-0.209231	-0.310663	-0.002376	-0.927203
38100		5.613006	1.278657	7.848170	0.005924	-0.003044	-0.003608	-0.641357	-0.222168	-0.277832	-0.209242	-0.310623	-0.002390	-0.927214
38101		5.600104	1.291951	7.835301	0.003477	-0.004479	-0.001456	-0.632568	-0.222656	-0.282227	-0.209215	-0.310730	-0.002403	-0.927184
38102		5.621098	1.280502	7.862327	0.004375	-0.003344	-0.002467	-0.640137	-0.215820	-0.290283	-0.209306	-0.310752	-0.002412	-0.927156
38103		5.607407	1.265386	7.861227	0.005594	-0.003211	-0.004095	-0.637695	-0.225586	-0.280273	-0.209252	-0.310721	-0.002422	-0.927179
38104		5.617114	1.288626	7.832685	0.005255	-0.003314	-0.002298	-0.634033	-0.220459	-0.290283	-0.209321	-0.310785	-0.002458	-0.927141
38105		5.603452	1.284633	7.850315	0.006457	-0.004284	-0.002746	-0.639893	-0.216309	-0.286133	-0.209373	-0.310751	-0.002473	-0.927141
38106		5.603980	1.285529	7.849791	0.000753	-0.001538	0.000058	-0.638184	-0.227539	-0.293945	-0.209290	-0.310726	-0.002422	-0.927169
38107		5.590273	1.269789	7.848817	0.005907	-0.004151	-0.002428	-0.638916	-0.220215	-0.286377	-0.209405	-0.310680	-0.002446	-0.927158
38108		5.621152	1.278812	7.884415	0.005705	-0.002748	-0.002804	-0.640137	-0.222656	-0.279541	-0.209401	-0.310681	-0.002468	-0.927158
38109		5.601157	1.292724	7.856253	0.004292	-0.001542	-0.003834	-0.642578	-0.214844	-0.284668	-0.209431	-0.310734	-0.002497	-0.927134
38110		5.606735	1.266874	7.846543	0.005705	-0.002748	-0.002804	-0.636719	-0.219727	-0.291504	-0.209316	-0.310757	-0.002513	-0.927152
38111		5.613004	1.280649	7.843823	0.004825	-0.002780	-0.002972	-0.639160	-0.221680	-0.291748	-0.209340	-0.310700	-0.002513	-0.927165
38112		5.631033	1.277905	7.866265	0.007593	-0.001116	-0.002357	-0.648682	-0.219971	-0.285889	-0.209349	-0.310642	-0.002555	-0.927183
38113		5.620424	1.234024	7.831902	0.026096	-0.006676	0.007269	-0.640137	-0.223389	-0.289795	-0.209053	-0.310781	-0.002777	-0.927202
38114		5.612414	1.228964	7.876931	0.031232	-0.005488	-0.005795	-0.635498	-0.217529	-0.281738	-0.209021	-0.310856	-0.003102	-0.927183
38115		5.657707	1.213033	7.885247	0.057890	-0.011124	-0.020757	-0.635986	-0.223389	-0.294189	-0.209012	-0.311112	-0.003770	-0.927097
38116		5.511260	1.351035	7.869036	0.068443	-0.019123	-0.031009	-0.636475	-0.221680	-0.281494	-0.209164	-0.311382	-0.004571	-0.926969
38117		5.609248	1.356072	7.834486	0.048251	-0.034776	-0.029426	-0.637207	-0.219482	-0.284668	-0.209319	-0.311887	-0.005104	-0.926761
38118		5.627314	1.368799	7.823008	0.032434	-0.030676	-0.028043	-0.634521	-0.221924	-0.282227	-0.209477	-0.312267	-0.005450	-0.926595
38119		5.638056	1.366148	7.815405	0.020532	-0.018276	-0.024660	-0.637207	-0.222900	-0.284668	-0.209692	-0.312481	-0.005679	-0.926473
38120		5.644097	1.262361	7.839084	0.031400	-0.013896	-0.030479	-0.637939	-0.222900	-0.287354	-0.209915	-0.312658	-0.006069	-0.926361
38121		5.629661	1.344968	7.844411	0.036523	-0.013888	-0.042368	-0.637695	-0.223633	-0.273438	-0.210242	-0.312824	-0.006561	-0.926227
38122		5.697466	1.343372	7.836113	0.053114	-0.010970	-0.045332	-0.630127	-0.222900	-0.276611	-0.210522	-0.313116	-0.007283	-0.926059
38123		5.625677	1.411186	7.797585	0.062465	-0.004648	-0.050104	-0.638672	-0.221436	-0.281982	-0.210872	-0.313301	-0.008129	-0.925910
38124		5.670063	1.254793	7.870933	0.063613	-0.006329	-0.056397	-0.634277	-0.223633	-0.268555	-0.211173	-0.313484	-0.009011	-0.925771
38125		5.695129	1.417920	7.845286	0.104560	-0.001271	-0.065702	-0.630127	-0.229248	-0.275879	-0.211454	-0.313814	-0.010433	-0.925580
38126		5.634012	1.421285	7.812342	0.102514	0.019713	-0.063007	-0.638428	-0.230957	-0.275879	-0.211818	-0.313820	-0.011859	-0.925478
38127		5.912739	1.267465	7.907206	0.165061	0.053693	-0.083090	-0.632324	-0.237305	-0.283203	-0.212075	-0.313621	-0.014194	-0.925454
38128		5.275797	1.683783	7.769403	0.164885	0.059119	-0.094279	-0.625977	-0.233887	-0.281006	-0.212583	-0.313280	-0.016563	-0.925413
38129		5.454156	1.720924	7.949669	0.114074	-0.016745	-0.065047	-0.641846	-0.240234	-0.286133	-0.212931	-0.313682	-0.018017	-0.925170
38130		4.416820	2.263003	7.882286	-0.001287	-0.184279	0.028309	-0.623535	-0.239746	-0.275146	-0.212598	-0.315740	-0.017351	-0.924559
38131		4.736374	1.823087	8.030454	-0.145777	-0.499292	0.195020	-0.638916	-0.231201	-0.265137	-0.211157	-0.321088	-0.013500	-0.923111
38132		5.562535	1.434942	7.759189	-0.047660	-0.566512	0.312491	-0.642578	-0.226318	-0.259766	-0.207778	-0.327523	-0.010162	-0.921658
38133		5.608437	2.157518	7.614438	0.226099	-0.420483	0.595843	-0.656738	-0.223145	-0.247070	-0.200011	-0.332963	-0.009187	-0.921437
38134		7.248613	0.981805	6.581937	0.095651	-0.072648	0.694351	-0.654053	-0.203613	-0.252686	-0.191584	-0.334122	-0.007198	-0.922825
38135		7.286916	0.153222	6.765227	-0.102490	0.551620	0.324139	-0.658203	-0.198486	-0.258789	-0.188129	-0.327460	-0.005933	-0.925928
38136		4.141965	1.264916	9.208483	0.004413	0.130050	0.016946	-0.648438	-0.195801	-0.261475	-0.187777	-0.325945	-0.006179	-0.926532
38137		6.124691	2.098482	7.305214	-0.056908	-0.116871	0.301587	-0.654541	-0.200684	-0.256348	-0.184442	-0.327128	-0.003960	-0.926797
38138		6.372499	-0.689595	8.020504	0.037995	-0.028922	0.056591	-0.651855	-0.197510	-0.260010	-0.183670	-0.327549	-0.004059	-0.926801
38139		4.292622	1.041829	10.260987	0.351536	-0.866803	-0.436618	-0.658691	-0.200684	-0.242920	-0.187365	-0.338297	-0.007858	-0.922165
38140		3.680102	-0.190375	12.036180	0.795376	-2.694015	-0.661350	-0.671875	-0.219482	-0.192627	-0.191671	-0.370879	-0.013462	-0.908587
38141		3.358604	0.683478	13.513697	1.140341	-5.235678	-0.757518	-0.684814	-0.239746	-0.083252	-0.195368	-0.432024	-0.017303	-0.880277
38142		11.450096	0.876020	13.855913	1.525889	-6.431772	-0.639020	-0.677246	-0.251953	0.035889	-0.194842	-0.504914	-0.021756	-0.840610
38143		20.655838	1.317025	5.543823	1.829797	-4.390790	-0.529251	-0.673340	-0.251709	0.129395	-0.189765	-0.554555	-0.033519	-0.809527
38144		23.765360	-2.039111	-0.873131	2.232060	0.475778	2.125181	-0.690186	-0.212402	0.130127	-0.152285	-0.555728	-0.042464	-0.816194
38145		4.067783	3.037442	-5.957117	1.400893	2.824232	3.499402	-0.714111	-0.156982	0.070801	-0.105065	-0.530681	-0.037629	-0.840192
38146		1.159039	6.602710	-4.657696	-0.474472	2.248228	2.348651	-0.731445	-0.099609	0.040771	-0.082655	-0.507092	-0.019776	-0.857691
38147		-6.496251	2.489946	-10.120103	-0.562152	-0.118793	0.052595	-0.717041	-0.104004	0.047119	-0.085417	-0.507944	-0.013268	-0.857042
38148		1.309364	5.137786	-5.350981	-0.726089	-2.612746	-0.540030	-0.724854	-0.114014	0.088379	-0.096149	-0.535010	-0.006039	-0.839335
38149		3.024977	4.788315	-1.364560	-1.810465	-2.262128	-0.812998	-0.714355	-0.125488	0.123047	-0.116717	-0.556299	0.010223	-0.822681
38150		-0.617000	1.914324	-1.886279	-2.770854	-2.336449	-0.989573	-0.699707	-0.162598	0.155029	-0.145364	-0.575966	0.035086	-0.803680
38151		29.757105	-8.754642	10.678451	-2.319342	-1.910163	-0.299843	-0.697021	-0.174072	0.177734	-0.164047	-0.590852	0.059629	-0.787672
38152		15.238489	0.828877	-2.786680	-1.074619	5.889275	0.194416	-0.712891	-0.176025	0.055908	-0.173816	-0.529079	0.059401	-0.828453
38153		10.148847	-0.334138	11.853942	0.570809	6.207456	-0.369812	-0.713623	-0.180664	-0.043945	-0.177966	-0.464729	0.037497	-0.866573
38154		3.292351	4.037854	12.345520	0.381784	5.094783	-0.131610	-0.684570	-0.196045	-0.140137	-0.179090	-0.409657	0.021264	-0.894235
38155		3.826991	0.733759	11.755750	-0.244311	3.173903	0.220677	-0.680176	-0.189453	-0.203125	-0.179050	-0.373187	0.018145	-0.910134
38156		4.452074	2.435774	10.676469	-0.171725	1.391776	0.362223	-0.673828	-0.185059	-0.222412	-0.176311	-0.356631	0.018757	-0.917266
38157		5.633253	-1.673961	9.795891	0.117800	0.100802	0.334289	-0.674316	-0.173584	-0.209473	-0.172323	-0.355564	0.018761	-0.918437
38158		4.412588	-1.408810	11.577836	0.564154	-1.520615	-0.657387	-0.674805	-0.189697	-0.186279	-0.177153	-0.374452	0.012745	-0.910077
38159		2.582763	2.399606	13.140191	0.772119	-3.909235	-0.782649	-0.689209	-0.208984	-0.114990	-0.181865	-0.420287	0.009079	-0.888933
38160		5.890206	3.684349	13.367126	0.598572	-6.293213	-0.110305	-0.695312	-0.208740	0.012939	-0.178971	-0.490249	0.016276	-0.852854
38161		16.248645	2.239599	10.847564	1.608034	-6.780305	0.380827	-0.691162	-0.197021	0.137695	-0.163288	-0.564397	0.016783	-0.809019
38162		19.491850	-2.548196	1.521320	3.808700	-3.642350	0.124129	-0.681885	-0.177490	0.222412	-0.134197	-0.607999	-0.013266	-0.782402
38163		19.379387	7.084671	-1.794640	2.802874	0.994884	0.446270	-0.691650	-0.148193	0.212891	-0.108361	-0.602949	-0.038721	-0.789437
38164		2.337817	1.665737	-4.419696	0.165364	1.883419	0.813615	-0.702148	-0.139160	0.176025	-0.098006	-0.585009	-0.036665	-0.804248
38165		2.655057	3.274332	-1.741384	-1.743342	1.863769	0.272823	-0.718994	-0.136719	0.136230	-0.107123	-0.564097	-0.019314	-0.818502
38166		-5.725498	-1.810975	-7.681261	-1.565749	0.649256	-0.506610	-0.716309	-0.163574	0.123779	-0.122994	-0.555176	-0.007734	-0.822552
38167		-0.088542	-1.371496	-3.815724	-0.155808	-1.492288	-0.358540	-0.707520	-0.157959	0.138428	-0.128083	-0.570312	-0.006165	-0.811358
38168		3.148428	2.117822	0.915812	-0.663516	-0.941326	-0.545505	-0.702393	-0.173096	0.162598	-0.138270	-0.578653	-0.001834	-0.803765
38169		-1.184660	-0.802462	-1.002451	-1.818631	-0.709065	-0.344863	-0.700684	-0.179199	0.168457	-0.154845	-0.582577	0.015229	-0.797744
38170		-0.461444	-5.893470	-1.847801	-1.470995	-1.698835	0.445029	-0.685547	-0.183350	0.192139	-0.160548	-0.596468	0.036389	-0.785574
38171		39.164150	5.168887	-3.712519	-0.566036	-0.682258	0.313357	-0.682129	-0.171631	0.197021	-0.161392	-0.602008	0.045770	-0.780669
38172		15.870368	-0.237744	1.555169	-1.763089	7.292240	-1.116687	-0.700684	-0.201660	0.054443	-0.188809	-0.525443	0.039689	-0.828665
38173		7.351769	2.106091	14.256625	0.132474	6.867296	-1.008805	-0.688965	-0.231934	-0.075439	-0.201023	-0.453233	0.015447	-0.868292
38174		2.225985	5.535620	12.145364	-0.436845	5.151071	0.311152	-0.681641	-0.225098	-0.161133	-0.200988	-0.395084	0.009104	-0.896343
38175		3.709163	0.660684	12.316829	-0.633567	3.084307	0.869942	-0.666748	-0.207275	-0.227539	-0.194760	-0.358448	0.012816	-0.912918
38176		3.896917	-0.509967	11.911067	-0.160335	0.585281	0.479865	-0.664062	-0.198975	-0.230713	-0.190245	-0.350997	0.015398	-0.916717
38177		5.392756	-1.719222	10.211032	0.326091	-1.014168	-0.139449	-0.674072	-0.196045	-0.208252	-0.190413	-0.363242	0.013525	-0.911930
38178		4.248762	0.326708	11.877618	0.704621	-2.664658	-0.786602	-0.683105	-0.218750	-0.159180	-0.195614	-0.395116	0.008310	-0.897524
38179		1.876231	4.040899	13.837018	0.737553	-5.229746	-0.375653	-0.696289	-0.218994	-0.055420	-0.195373	-0.454672	0.011048	-0.868896
38180		10.466033	3.807189	13.869555	1.067084	-7.440183	0.623151	-0.691895	-0.204346	0.082764	-0.180626	-0.535929	0.021145	-0.824444
38181		21.090733	-2.659936	7.659140	3.036259	-5.642976	0.481550	-0.680664	-0.192139	0.197754	-0.153179	-0.599127	0.005779	-0.785843
38182		27.896076	0.781043	-2.459148	5.309644	-1.156288	0.979648	-0.685547	-0.145508	0.247070	-0.103429	-0.619296	-0.036680	-0.777451
38183		3.989125	1.913464	-6.454298	2.646132	3.226499	1.243807	-0.707031	-0.103027	0.184082	-0.069257	-0.591284	-0.056692	-0.801481
38184		2.456395	7.765950	-4.426935	-0.151002	1.777043	0.826571	-0.720703	-0.091309	0.143799	-0.060561	-0.573733	-0.050603	-0.815232
38185		-0.487894	6.529095	-3.861886	-2.710383	1.688812	-0.810228	-0.717529	-0.118652	0.117188	-0.086854	-0.553291	-0.030144	-0.827899
38186		-6.244362	-0.267972	-7.160895	-2.710418	-0.316959	-1.434306	-0.715576	-0.147949	0.110840	-0.120411	-0.552718	-0.011673	-0.824541
38187		2.666661	-1.725145	-1.452648	-1.173828	-1.248826	-1.453813	-0.704102	-0.181885	0.133545	-0.143415	-0.563366	-0.007836	-0.813627
38188		3.201184	-2.442964	2.634611	-1.028960	-0.008037	-0.853713	-0.691406	-0.190918	0.130371	-0.159262	-0.561517	-0.003377	-0.811987
38189		-1.485574	-2.523932	0.934445	-1.184214	0.552145	-0.676347	-0.698486	-0.216797	0.110107	-0.174154	-0.553542	0.002724	-0.814404
38190		-2.774583	-7.989993	-2.401640	0.156105	-0.604177	-0.174462	-0.690430	-0.208008	0.117188	-0.174817	-0.560034	0.001273	-0.809814
38191		27.934497	13.046454	-0.617284	0.935506	-0.634876	0.464934	-0.693359	-0.199707	0.131104	-0.163309	-0.568380	-0.003614	-0.806388
38192		38.271416	0.830194	3.095907	-1.979652	8.949623	-2.220534	-0.682129	-0.245361	-0.046875	-0.197950	-0.470222	-0.017692	-0.859880
38193		-0.030144	4.350070	14.207503	-2.044333	7.945557	-0.554146	-0.659912	-0.256836	-0.199219	-0.213224	-0.377037	-0.018425	-0.901132
38194		-3.216022	-4.206919	18.129406	-1.640622	4.739732	1.094085	-0.632324	-0.218750	-0.279053	-0.207419	-0.318385	-0.007296	-0.924962
38195		-1.193165	4.611405	14.971655	-0.074053	-0.400519	0.348740	-0.650879	-0.214111	-0.283936	-0.203704	-0.322511	-0.003950	-0.924378
38196		9.690423	-0.528176	5.358828	0.109867	-0.906969	0.767572	-0.654053	-0.197998	-0.262939	-0.194259	-0.332836	0.000197	-0.922759
38197		10.582013	-3.065001	5.989376	0.398751	0.337607	-0.317746	-0.654541	-0.209473	-0.266113	-0.196068	-0.329555	-0.006518	-0.923530
38198		6.265513	2.038427	9.301860	0.881094	0.895985	-0.928232	-0.634521	-0.240479	-0.273682	-0.202979	-0.320967	-0.022635	-0.924807
38199		7.465380	0.613737	8.852177	1.224174	1.112921	-0.955452	-0.623535	-0.256348	-0.283203	-0.209149	-0.310630	-0.043301	-0.926224
38200		6.685597	4.532986	7.768425	1.035121	1.397674	-0.880943	-0.605957	-0.275879	-0.302979	-0.214595	-0.296379	-0.062252	-0.928565
38201		2.384117	4.364387	6.911013	0.090650	1.308089	-0.299721	-0.587158	-0.288330	-0.317871	-0.216723	-0.280865	-0.067830	-0.932494
38202		2.526550	1.825954	6.683074	-0.024632	1.224753	-0.204768	-0.580566	-0.293457	-0.332031	-0.218500	-0.266090	-0.071470	-0.936133
38203		1.578801	2.405629	7.106346	-0.010303	0.871977	-0.227334	-0.568115	-0.296875	-0.351074	-0.220759	-0.255531	-0.074395	-0.938315
38204		2.938271	1.425203	8.269150	-0.007741	0.522343	-0.071266	-0.562500	-0.301758	-0.363037	-0.221465	-0.249083	-0.075893	-0.939761
38205		4.364630	2.446115	9.138911	0.067405	0.342830	0.115100	-0.563721	-0.295166	-0.368652	-0.219983	-0.245079	-0.077194	-0.941055
38206		5.218982	3.919617	9.189168	-0.096980	0.310590	0.064801	-0.561768	-0.301514	-0.368408	-0.219362	-0.240950	-0.076645	-0.942310
38207		4.705055	3.348641	8.913323	-0.300572	0.357646	0.043715	-0.553467	-0.297607	-0.386475	-0.219813	-0.235812	-0.073884	-0.943724
38208		4.875555	0.922294	9.088065	-0.235381	0.463323	-0.010938	-0.553467	-0.288574	-0.382080	-0.220498	-0.229379	-0.072358	-0.945267
38209		4.124414	1.402168	8.866817	-0.005720	0.543352	-0.077779	-0.552246	-0.301025	-0.395508	-0.221053	-0.222758	-0.073957	-0.946596
38210		3.155481	1.788193	8.270926	0.131579	0.554740	-0.120447	-0.540771	-0.296387	-0.405762	-0.221928	-0.216345	-0.077320	-0.947610
38211		2.420925	2.359141	7.977286	0.154074	0.393479	-0.133791	-0.537354	-0.302002	-0.405518	-0.222806	-0.211802	-0.080543	-0.948162
38212		1.958876	2.639599	8.120010	0.110466	0.179495	-0.086248	-0.533936	-0.310547	-0.407227	-0.223497	-0.209797	-0.082531	-0.948274
38213		3.360409	2.673980	8.683939	0.025522	0.032336	-0.067185	-0.529785	-0.300293	-0.401611	-0.224423	-0.209335	-0.083065	-0.948110
38214		2.867007	2.449039	8.557967	-0.035031	-0.016043	0.011188	-0.522705	-0.304932	-0.403076	-0.224413	-0.209369	-0.082537	-0.948151
38215		2.392104	1.913101	8.274062	-0.045858	-0.192666	0.069958	-0.540039	-0.294922	-0.413330	-0.223990	-0.211495	-0.081248	-0.947891
38216		2.850498	1.802319	8.429692	0.046113	-0.378967	0.069470	-0.538330	-0.305176	-0.400391	-0.223329	-0.216060	-0.080475	-0.947083
38217		4.287333	2.186421	8.930781	0.141691	-0.417117	-0.012923	-0.543457	-0.302246	-0.395752	-0.223596	-0.221306	-0.080986	-0.945764
38218		2.974019	3.688941	8.220866	0.011297	-0.492525	0.105285	-0.546143	-0.299072	-0.382812	-0.222825	-0.227183	-0.079398	-0.944687
38219		0.235082	1.649263	6.604181	-0.114221	-0.757593	0.114414	-0.556641	-0.296875	-0.379395	-0.222535	-0.235862	-0.075572	-0.942940
38220		-1.865673	1.788285	6.056269	-0.265840	-2.349687	0.675427	-0.581299	-0.289551	-0.337891	-0.217459	-0.263263	-0.063831	-0.937726
38221		15.309163	2.896383	11.831738	-0.116002	-1.807715	0.385662	-0.605713	-0.269775	-0.316406	-0.214730	-0.284342	-0.056265	-0.932671
38222		4.023003	2.486850	7.851878	-0.278320	-0.604631	0.167691	-0.612061	-0.265381	-0.310547	-0.214108	-0.290718	-0.050726	-0.931165
38223		3.857430	3.970571	7.726087	-0.867895	-1.192538	0.531374	-0.617188	-0.251709	-0.292969	-0.211727	-0.302516	-0.035423	-0.928655
38224		8.926443	-0.316467	8.871308	-0.624425	-0.629394	0.381475	-0.627930	-0.229004	-0.289551	-0.209867	-0.308283	-0.025026	-0.927519
38225		5.618796	1.348777	8.181542	-0.252072	-0.297766	0.139739	-0.630371	-0.232178	-0.282471	-0.209191	-0.311074	-0.020692	-0.926846
38226		5.809587	1.286202	7.939560	-0.133749	-0.220641	0.058193	-0.633789	-0.236572	-0.276855	-0.209029	-0.313273	-0.018275	-0.926193
38227		5.821038	1.604346	7.847633	-0.091086	-0.138490	0.021242	-0.635742	-0.234619	-0.280029	-0.209143	-0.314636	-0.016731	-0.925734
38228		5.664644	1.721131	7.764546	-0.061645	-0.042911	0.029727	-0.631836	-0.233643	-0.284912	-0.209025	-0.314952	-0.015731	-0.925671
38229		5.620528	1.461037	7.789434	-0.067477	-0.017393	0.046909	-0.632324	-0.231445	-0.277832	-0.208743	-0.314933	-0.014654	-0.925758
38230		5.714212	1.352809	7.880683	-0.041799	-0.003894	0.028958	-0.643555	-0.236328	-0.270264	-0.208550	-0.314848	-0.013993	-0.925841
38231		5.643469	1.393791	7.844657	-0.015643	-0.000053	0.002063	-0.638672	-0.230957	-0.280273	-0.208559	-0.314825	-0.013775	-0.925850
38232		5.543102	1.481252	7.833096	-0.019762	-0.002283	0.001841	-0.642334	-0.225342	-0.275879	-0.208592	-0.314773	-0.013473	-0.925865
38233		5.673147	1.406707	7.826255	-0.021913	-0.006720	0.008115	-0.630859	-0.222412	-0.285645	-0.208527	-0.314784	-0.013108	-0.925881
38234		5.606513	1.512371	7.824183	-0.002408	0.004265	0.000743	-0.638184	-0.230713	-0.274170	-0.208503	-0.314670	-0.013001	-0.925927
38235		5.567342	1.544185	7.822872	-0.013077	-0.011019	0.010012	-0.630127	-0.222656	-0.284180	-0.208411	-0.314755	-0.012737	-0.925922
38236		5.506183	1.495325	7.807506	-0.029334	-0.018621	0.018523	-0.634033	-0.230469	-0.281494	-0.208296	-0.314843	-0.012195	-0.925925
38237		5.634006	1.482656	7.776224	-0.043774	-0.021420	0.031689	-0.644287	-0.224609	-0.278320	-0.208103	-0.314942	-0.011451	-0.925945
38238		5.604766	1.396354	7.827912	-0.038239	-0.010727	0.030003	-0.646729	-0.218018	-0.276367	-0.207860	-0.314951	-0.010804	-0.926004
38239		5.571277	1.331881	7.856325	-0.029200	-0.017856	0.026645	-0.637451	-0.222656	-0.278809	-0.207596	-0.315072	-0.010251	-0.926029
38240		5.676751	1.353394	7.846208	-0.013267	-0.021629	0.012674	-0.640869	-0.214600	-0.280518	-0.207478	-0.315258	-0.009929	-0.925995
38241		5.666742	1.425168	7.837411	-0.005684	-0.016434	0.010957	-0.637695	-0.221191	-0.277100	-0.207325	-0.315399	-0.009698	-0.925984
38242		5.624354	1.404068	7.831218	-0.009361	-0.019093	0.013698	-0.635498	-0.220947	-0.273682	-0.207177	-0.315568	-0.009427	-0.925962
38243		5.608742	1.387856	7.800797	-0.009890	-0.016674	0.013900	-0.636963	-0.220703	-0.272949	-0.207029	-0.315714	-0.009160	-0.925948
38244		5.648896	1.365014	7.825675	-0.009937	-0.022322	0.015332	-0.648438	-0.221191	-0.285400	-0.206861	-0.315928	-0.008875	-0.925915
38245		5.667699	1.366786	7.804125	-0.005285	-0.021746	0.007307	-0.633545	-0.219482	-0.276611	-0.206771	-0.316123	-0.008658	-0.925871
38246		5.636686	1.406754	7.810859	-0.005391	-0.022034	0.010588	-0.641113	-0.221191	-0.275879	-0.206663	-0.316329	-0.008432	-0.925827
38247		5.666183	1.376167	7.809373	-0.010247	-0.022307	0.019417	-0.639893	-0.221680	-0.274658	-0.206453	-0.316535	-0.008124	-0.925806
38248		5.672394	1.323894	7.806304	-0.010409	-0.015362	0.015308	-0.640869	-0.220703	-0.275879	-0.206296	-0.316661	-0.007851	-0.925800
38249		5.680880	1.333448	7.802171	-0.001726	-0.008477	0.005981	-0.637207	-0.224121	-0.281494	-0.206212	-0.316725	-0.007730	-0.925798
38250		5.663747	1.382713	7.815837	-0.004783	-0.004445	0.008063	-0.644043	-0.212891	-0.276123	-0.206151	-0.316718	-0.007566	-0.925815
38251		5.636761	1.347777	7.815605	-0.002605	-0.008402	0.008100	-0.646729	-0.216553	-0.280762	-0.206021	-0.316780	-0.007416	-0.925825
38252		5.667830	1.327738	7.825966	0.001681	-0.011154	0.005464	-0.643555	-0.211182	-0.279053	-0.205918	-0.316875	-0.007317	-0.925815
38253		5.654316	1.375506	7.794232	0.003775	-0.011139	0.001706	-0.641846	-0.221924	-0.273682	-0.205845	-0.316975	-0.007251	-0.925798
38254		5.652434	1.378622	7.800752	-0.003399	-0.010322	0.007055	-0.636475	-0.220215	-0.289062	-0.205756	-0.317062	-0.007110	-0.925789
38255		5.667918	1.353350	7.793597	-0.004575	-0.006945	0.009662	-0.643311	-0.221680	-0.277832	-0.205698	-0.317062	-0.006913	-0.925803
38256		5.678308	1.315327	7.826041	-0.005011	-0.004332	0.004303	-0.637207	-0.222900	-0.279297	-0.205654	-0.317066	-0.006772	-0.925813
38257		5.647410	1.341337	7.809022	0.000218	-0.001308	0.002679	-0.642090	-0.213867	-0.277832	-0.205636	-0.317039	-0.006699	-0.925827
38258		5.622346	1.363477	7.820164	-0.002172	-0.008051	0.003020	-0.644531	-0.208984	-0.277588	-0.205581	-0.317089	-0.006575	-0.925823
38259		5.647524	1.354811	7.832956	-0.002603	-0.020522	0.008875	-0.643311	-0.218750	-0.276611	-0.205440	-0.317285	-0.006388	-0.925788
38260		5.698249	1.323513	7.796861	-0.003229	-0.016302	0.007683	-0.642334	-0.226318	-0.278076	-0.205345	-0.317433	-0.006223	-0.925760
38261		5.692529	1.317857	7.792743	-0.001735	-0.009680	0.004898	-0.644043	-0.217041	-0.273682	-0.205303	-0.317505	-0.006108	-0.925745
38262		5.669919	1.320139	7.790470	-0.001763	0.000053	0.001959	-0.643799	-0.217529	-0.270264	-0.205255	-0.317474	-0.006027	-0.925767
38263		5.672744	1.322922	7.814127	-0.003735	0.001515	0.003521	-0.643799	-0.215332	-0.279541	-0.205190	-0.317429	-0.005929	-0.925797
38264		5.679474	1.310178	7.811263	-0.002760	-0.000357	0.002797	-0.637939	-0.219971	-0.273682	-0.205150	-0.317384	-0.005819	-0.925822
38265		5.668990	1.313528	7.803527	0.001498	-0.005393	0.000269	-0.640625	-0.215332	-0.280273	-0.205139	-0.317419	-0.005767	-0.925813
38266		5.686687	1.321954	7.807681	-0.000562	-0.002037	0.002716	-0.648682	-0.214600	-0.275879	-0.205105	-0.317395	-0.005674	-0.925829
38267		5.677392	1.302078	7.799227	0.005244	-0.006809	-0.000971	-0.652100	-0.224609	-0.271973	-0.205049	-0.317459	-0.005667	-0.925820
38268		5.685890	1.331192	7.801125	0.004517	-0.002873	0.001119	-0.643555	-0.212158	-0.276611	-0.204974	-0.317491	-0.005676	-0.925825
38269		5.681785	1.323648	7.790466	0.002568	0.000871	0.002567	-0.638672	-0.219482	-0.276855	-0.204904	-0.317451	-0.005633	-0.925855
38270		5.690674	1.304185	7.792739	0.000595	0.004418	-0.000550	-0.644775	-0.211914	-0.278809	-0.204915	-0.317362	-0.005592	-0.925883
38271		5.645640	1.331049	7.782390	0.001471	0.004342	-0.002670	-0.638184	-0.215088	-0.274170	-0.204909	-0.317275	-0.005564	-0.925914
38272		5.665808	1.303317	7.841372	0.001537	-0.001920	0.001238	-0.642578	-0.215088	-0.279785	-0.204879	-0.317268	-0.005511	-0.925924
38273		5.680847	1.336668	7.809561	0.002854	-0.002531	-0.000202	-0.641357	-0.212402	-0.278809	-0.204859	-0.317261	-0.005472	-0.925931
38274		5.666372	1.308702	7.791333	-0.000088	0.001895	0.000885	-0.642578	-0.216064	-0.277588	-0.204833	-0.317195	-0.005404	-0.925960
38275		5.672659	1.308201	7.807334	-0.001916	0.006126	0.003613	-0.635986	-0.208984	-0.278809	-0.204783	-0.317082	-0.005322	-0.926010
38276		5.682514	1.303944	7.815680	-0.000698	0.007311	0.000776	-0.640625	-0.219238	-0.277100	-0.204771	-0.316947	-0.005253	-0.926059
38277		5.664124	1.295473	7.812036	-0.000384	0.007282	-0.003307	-0.637207	-0.208740	-0.277588	-0.204811	-0.316826	-0.005222	-0.926092
38278		5.665815	1.327361	7.824100	-0.002003	0.010103	-0.000181	-0.645264	-0.214355	-0.280029	-0.204803	-0.316660	-0.005154	-0.926151
38279		5.653651	1.306634	7.817871	-0.003777	0.010057	-0.000504	-0.643555	-0.222168	-0.279541	-0.204797	-0.316494	-0.005077	-0.926209
38280		5.668687	1.314348	7.824083	-0.003661	0.009451	0.001977	-0.640381	-0.223877	-0.277832	-0.204790	-0.316339	-0.004996	-0.926265
38281		5.654666	1.356764	7.788017	-0.006222	0.016521	0.007993	-0.638672	-0.211182	-0.272949	-0.204736	-0.316098	-0.004880	-0.926359
38282		5.646423	1.328126	7.811993	-0.016501	0.024549	0.019680	-0.640137	-0.217285	-0.278076	-0.204540	-0.315747	-0.004619	-0.926524
38283		5.631597	1.284802	7.839482	-0.019894	0.026219	0.023680	-0.648682	-0.216553	-0.274658	-0.204339	-0.315359	-0.004304	-0.926702
38284		5.645393	1.263094	7.847717	-0.014980	0.021323	0.017555	-0.637695	-0.215576	-0.273926	-0.204144	-0.315059	-0.004075	-0.926848
38285		5.631000	1.261854	7.843528	-0.012368	0.017819	0.014791	-0.639648	-0.214600	-0.281006	-0.204010	-0.314798	-0.003868	-0.926967
38286		5.655855	1.251244	7.839909	-0.007528	0.016012	0.010637	-0.637695	-0.210449	-0.279297	-0.203914	-0.314554	-0.003717	-0.927071
38287		5.629281	1.251996	7.840669	-0.004985	0.016589	0.006365	-0.641602	-0.209473	-0.277832	-0.203847	-0.314312	-0.003613	-0.927168
38288		5.629272	1.254459	7.866342	-0.000827	0.013357	0.002445	-0.631592	-0.206543	-0.287598	-0.203786	-0.314126	-0.003571	-0.927245
38289		5.624388	1.262077	7.863045	-0.000088	0.010616	0.001438	-0.639648	-0.217285	-0.281250	-0.203793	-0.313936	-0.003504	-0.927308
38290		5.630878	1.265872	7.866928	-0.002643	0.009846	0.001145	-0.641113	-0.216797	-0.282471	-0.203795	-0.313780	-0.003436	-0.927361
38291		5.623646	1.281236	7.858505	-0.001291	0.011610	0.001877	-0.635742	-0.212402	-0.280762	-0.203779	-0.313605	-0.003385	-0.927424
38292		5.612417	1.248278	7.870244	-0.001756	0.009866	0.001309	-0.642822	-0.214844	-0.286133	-0.203773	-0.313448	-0.003321	-0.927478
38293		5.586195	1.274984	7.870212	-0.000449	0.008166	0.001068	-0.643555	-0.216064	-0.285645	-0.203757	-0.313307	-0.003269	-0.927529
38294		5.620260	1.232196	7.861439	-0.000926	0.005331	0.001696	-0.636230	-0.210938	-0.279541	-0.203736	-0.313202	-0.003206	-0.927570
38295		5.631043	1.256532	7.856978	0.001949	0.005081	0.001388	-0.640869	-0.215820	-0.287109	-0.203703	-0.313114	-0.003175	-0.927607
38296		5.585478	1.255200	7.858976	-0.000516	0.003422	-0.003272	-0.641602	-0.215088	-0.286621	-0.203752	-0.313025	-0.003126	-0.927626
38297		5.606851	1.248379	7.874195	0.003131	0.002806	-0.002418	-0.638184	-0.218994	-0.285400	-0.203769	-0.312955	-0.003115	-0.927646
38298		5.612206	1.250148	7.853193	0.004086	-0.000247	-0.004226	-0.638428	-0.209717	-0.287354	-0.203829	-0.312925	-0.003115	-0.927643
38299		5.595900	1.282650	7.854264	0.002898	0.001934	-0.002702	-0.633789	-0.211670	-0.285645	-0.203841	-0.312856	-0.003095	-0.927664
38300		5.599053	1.251399	7.858920	0.000665	0.000242	-0.001317	-0.638672	-0.214355	-0.285156	-0.203868	-0.312803	-0.003037	-0.927676
38301		5.584069	1.259127	7.859349	0.001074	-0.002570	-0.000524	-0.639648	-0.209717	-0.277832	-0.203875	-0.312792	-0.002981	-0.927679
38302		5.608415	1.256294	7.860583	0.002267	-0.004658	0.000234	-0.637695	-0.213623	-0.291992	-0.203830	-0.312829	-0.002941	-0.927676
38303		5.603364	1.244644	7.862496	0.002160	-0.004049	-0.002246	-0.648926	-0.206787	-0.283447	-0.203868	-0.312815	-0.002890	-0.927672
38304		5.598250	1.245030	7.882989	0.004279	-0.002746	-0.002632	-0.637451	-0.210938	-0.286377	-0.203811	-0.312827	-0.002890	-0.927681
38305		5.612962	1.251226	7.863720	0.005484	-0.003742	-0.003071	-0.640381	-0.213135	-0.287598	-0.203825	-0.312833	-0.002888	-0.927676
38306		5.600875	1.252342	7.868714	0.006382	-0.002629	-0.004104	-0.641357	-0.204834	-0.285889	-0.203848	-0.312830	-0.002905	-0.927672
38307		5.600469	1.266342	7.849949	0.005133	-0.005098	-0.004637	-0.642334	-0.218262	-0.287842	-0.203835	-0.312854	-0.002906	-0.927667
38308		5.589629	1.254888	7.872887	0.003496	-0.003472	-0.002598	-0.649902	-0.205078	-0.286133	-0.203867	-0.312856	-0.002885	-0.927659
38309		5.609731	1.244653	7.863540	0.003707	-0.004783	0.000081	-0.642578	-0.215088	-0.288818	-0.203771	-0.312882	-0.002861	-0.927671
38310		5.613979	1.265575	7.855121	0.002701	-0.005289	-0.001366	-0.638916	-0.208008	-0.285645	-0.203780	-0.312899	-0.002819	-0.927664
38311		5.609046	1.254301	7.856908	0.004923	-0.004689	-0.001555	-0.640137	-0.202881	-0.290283	-0.203757	-0.312917	-0.002805	-0.927663
38312		5.586317	1.258343	7.854344	0.002486	-0.004975	-0.000565	-0.647949	-0.212158	-0.286377	-0.203714	-0.312916	-0.002751	-0.927673
38313		5.596996	1.251059	7.873840	0.004567	-0.007041	0.000358	-0.637695	-0.207275	-0.282227	-0.203652	-0.312970	-0.002730	-0.927668
38314		5.619388	1.245134	7.850901	0.003545	-0.008735	-0.002172	-0.644043	-0.213379	-0.288086	-0.203637	-0.313040	-0.002695	-0.927648
38315		5.603395	1.273030	7.863708	0.003449	-0.007936	-0.000089	-0.639648	-0.209229	-0.273438	-0.203614	-0.313091	-0.002653	-0.927636
38316		5.596610	1.269304	7.860039	0.002888	-0.008881	0.001427	-0.635498	-0.211914	-0.291016	-0.203538	-0.313192	-0.002613	-0.927618
38317		5.611937	1.246318	7.852592	0.002656	-0.009754	0.001144	-0.642578	-0.213135	-0.282959	-0.203550	-0.313241	-0.002535	-0.927600
38318		5.620554	1.246837	7.866731	0.003011	-0.007403	-0.000770	-0.639404	-0.212402	-0.284668	-0.203531	-0.313299	-0.002498	-0.927584
38319		5.638649	1.244616	7.851907	0.004898	-0.006972	-0.001443	-0.638672	-0.209717	-0.291016	-0.203530	-0.313346	-0.002478	-0.927569
38320		5.621916	1.261187	7.846600	0.003814	-0.004496	-0.003201	-0.642334	-0.212402	-0.284912	-0.203560	-0.313338	-0.002449	-0.927565
38321		5.604160	1.249458	7.854222	0.002609	-0.003499	-0.002762	-0.643799	-0.213379	-0.281250	-0.203569	-0.313342	-0.002421	-0.927562
38322		5.624264	1.250904	7.863433	0.003281	-0.003162	-0.001799	-0.649658	-0.209961	-0.291016	-0.203553	-0.313359	-0.002405	-0.927560
38323		5.623006	1.247403	7.876170	0.001430	-0.000223	-0.002438	-0.640381	-0.210938	-0.279785	-0.203530	-0.313308	-0.002371	-0.927582
38324		5.617372	1.252218	7.847766	0.002015	0.002007	-0.000589	-0.649658	-0.213867	-0.277100	-0.203504	-0.313261	-0.002347	-0.927603
38325		5.620783	1.232417	7.870966	0.001335	0.000578	-0.000355	-0.641602	-0.207520	-0.284912	-0.203439	-0.313252	-0.002329	-0.927621
38326		5.608139	1.232714	7.876532	0.005193	-0.000451	-0.002586	-0.638916	-0.212158	-0.278809	-0.203416	-0.313223	-0.002336	-0.927636
38327		5.605612	1.242525	7.871176	0.008164	-0.001504	-0.004981	-0.646484	-0.211426	-0.283203	-0.203429	-0.313235	-0.002392	-0.927629
38328		5.598209	1.268556	7.855502	0.007475	-0.004024	-0.003548	-0.647217	-0.222656	-0.285156	-0.203396	-0.313268	-0.002431	-0.927625
38329		5.610758	1.242923	7.861764	0.007372	-0.003321	-0.003747	-0.630859	-0.217773	-0.276611	-0.203427	-0.313293	-0.002470	-0.927609
38330		5.612723	1.248923	7.848118	0.005280	-0.002346	-0.003471	-0.640625	-0.213379	-0.291992	-0.203501	-0.313307	-0.002475	-0.927588
38331		5.604705	1.257881	7.863776	0.004067	-0.001447	-0.005314	-0.640137	-0.213867	-0.288086	-0.203568	-0.313263	-0.002465	-0.927588
38332		5.617539	1.259506	7.857763	0.002076	-0.002165	-0.001359	-0.645020	-0.213867	-0.281494	-0.203591	-0.313236	-0.002421	-0.927593
38333		5.607472	1.240065	7.849801	0.002765	0.000353	-0.002793	-0.643555	-0.218262	-0.273682	-0.203585	-0.313212	-0.002413	-0.927602
38334		5.620129	1.252938	7.862573	0.000999	0.000409	-0.000837	-0.642090	-0.218750	-0.286621	-0.203575	-0.313212	-0.002387	-0.927604
38335		5.628050	1.245836	7.846691	0.001024	0.002688	-0.000953	-0.644775	-0.211670	-0.283447	-0.203611	-0.313137	-0.002346	-0.927622
38336		5.613338	1.241602	7.865753	0.002910	0.003119	-0.001627	-0.644287	-0.216553	-0.287842	-0.203585	-0.313073	-0.002339	-0.927649
38337		5.615805	1.262828	7.858470	0.004021	0.003914	-0.003463	-0.638184	-0.214111	-0.291260	-0.203617	-0.312989	-0.002348	-0.927670
38338		5.612460	1.271904	7.853793	0.002455	0.002463	-0.003390	-0.632080	-0.221191	-0.286621	-0.203679	-0.312896	-0.002321	-0.927688
38339		5.599906	1.248259	7.859576	0.002384	0.005545	-0.001424	-0.635010	-0.217041	-0.286377	-0.203780	-0.312780	-0.002291	-0.927705
38340		5.589366	1.240543	7.870532	0.002534	-0.000520	-0.003075	-0.637207	-0.212646	-0.286621	-0.203856	-0.312738	-0.002260	-0.927703
38341		5.606582	1.250153	7.874892	0.004387	-0.003459	-0.002433	-0.641357	-0.211426	-0.283203	-0.203878	-0.312735	-0.002245	-0.927699
38342		5.610990	1.247426	7.866506	0.002654	-0.000034	-0.001793	-0.640869	-0.214111	-0.286133	-0.203866	-0.312705	-0.002225	-0.927712
38343		5.591339	1.247688	7.856695	0.003773	0.000861	-0.001348	-0.642334	-0.206055	-0.293701	-0.203871	-0.312658	-0.002214	-0.927727
38344		5.613270	1.241255	7.871486	0.003437	0.000691	-0.001829	-0.644043	-0.208008	-0.288574	-0.203835	-0.312580	-0.002197	-0.927761
38345		5.608781	1.245683	7.879658	0.001240	0.002370	-0.001754	-0.637207	-0.215820	-0.284668	-0.203801	-0.312501	-0.002166	-0.927795
38346		5.597050	1.250013	7.872630	0.002807	0.003821	-0.001827	-0.638184	-0.205078	-0.283691	-0.203842	-0.312420	-0.002149	-0.927813
38347		5.590198	1.227116	7.857276	0.003351	0.003572	-0.004427	-0.637451	-0.214600	-0.285889	-0.203827	-0.312342	-0.002157	-0.927843
38348		5.582994	1.251688	7.878974	0.003446	0.001780	-0.003028	-0.639893	-0.216797	-0.284424	-0.203872	-0.312281	-0.002147	-0.927853
38349		5.602289	1.241425	7.870214	0.002414	-0.001996	-0.000875	-0.639160	-0.214600	-0.283203	-0.203897	-0.312273	-0.002111	-0.927851
38350		5.598274	1.234107	7.859491	0.002862	-0.001441	-0.001393	-0.636230	-0.219482	-0.290527	-0.203911	-0.312262	-0.002085	-0.927851
38351		5.601504	1.238928	7.882474	0.004940	-0.003607	-0.002750	-0.642090	-0.209961	-0.281006	-0.203998	-0.312252	-0.002067	-0.927836
38352		5.593965	1.252581	7.848368	0.006172	-0.002327	-0.003305	-0.641846	-0.211914	-0.288574	-0.203968	-0.312270	-0.002094	-0.927836
38353		5.610764	1.246023	7.883825	0.003078	-0.001759	-0.002193	-0.635742	-0.203613	-0.287842	-0.203968	-0.312243	-0.002072	-0.927845
38354		5.606633	1.238862	7.873164	0.002758	-0.000738	-0.001593	-0.644287	-0.212402	-0.282959	-0.203924	-0.312193	-0.002047	-0.927872
38355		5.591421	1.247483	7.873603	0.006532	0.000121	-0.002941	-0.640137	-0.205322	-0.290771	-0.203899	-0.312181	-0.002082	-0.927881
38356		5.580198	1.252540	7.866090	0.004325	0.000712	-0.001666	-0.641357	-0.219482	-0.289551	-0.203849	-0.312113	-0.002079	-0.927915
38357		5.596655	1.245710	7.901842	0.002975	-0.001057	-0.002393	-0.645020	-0.210205	-0.283936	-0.203917	-0.312079	-0.002051	-0.927912
38358		5.585519	1.238488	7.875808	0.002759	-0.000739	-0.001593	-0.642090	-0.216309	-0.282471	-0.203871	-0.312064	-0.002037	-0.927927
38359		5.581896	1.242802	7.883378	0.002279	-0.004662	0.000244	-0.641357	-0.210693	-0.284668	-0.203866	-0.312099	-0.001994	-0.927916
38360		5.595479	1.243773	7.876944	0.002383	-0.005365	0.000444	-0.646973	-0.208252	-0.291016	-0.203823	-0.312128	-0.001950	-0.927916
38361		5.607740	1.228847	7.864874	0.003015	-0.008496	0.000443	-0.642090	-0.214844	-0.290283	-0.203743	-0.312175	-0.001906	-0.927918
38362		5.613222	1.237336	7.874360	0.002071	-0.003256	-0.000156	-0.643066	-0.213379	-0.282715	-0.203753	-0.312159	-0.001856	-0.927921
38363		5.590170	1.241330	7.872060	0.005949	-0.003101	-0.001305	-0.634277	-0.211914	-0.292725	-0.203726	-0.312183	-0.001868	-0.927919
38364		5.586999	1.246242	7.879219	0.003688	-0.007172	-0.002075	-0.640137	-0.212158	-0.285645	-0.203776	-0.312191	-0.001823	-0.927906
38365		5.605360	1.255668	7.882764	0.003464	-0.007942	-0.000075	-0.645264	-0.212891	-0.286865	-0.203758	-0.312246	-0.001782	-0.927891
38366		5.585751	1.239695	7.866421	0.003017	-0.008498	0.000444	-0.640381	-0.213623	-0.282959	-0.203718	-0.312311	-0.001738	-0.927878
38367		5.592542	1.224347	7.875317	0.002809	-0.007092	0.000044	-0.638916	-0.211182	-0.287598	-0.203707	-0.312367	-0.001693	-0.927862
38368		5.590556	1.256808	7.869378	0.003234	-0.008818	-0.000356	-0.644043	-0.208984	-0.277100	-0.203698	-0.312420	-0.001645	-0.927846
38369		5.615903	1.242482	7.851239	0.003116	-0.010292	0.001845	-0.645020	-0.212646	-0.287354	-0.203594	-0.312541	-0.001606	-0.927828
38370		5.601082	1.229638	7.894485	0.003325	-0.011700	0.002245	-0.646240	-0.218750	-0.291992	-0.203536	-0.312638	-0.001548	-0.927808
38371		5.605029	1.234339	7.879593	0.004870	-0.012531	0.002288	-0.645508	-0.205078	-0.287109	-0.203529	-0.312734	-0.001495	-0.927777
38372		5.610243	1.243409	7.851750	0.004452	-0.009718	0.001488	-0.647705	-0.214355	-0.284424	-0.203410	-0.312806	-0.001467	-0.927780
38373		5.603067	1.239357	7.848459	0.001652	-0.002518	0.003725	-0.643311	-0.215576	-0.289307	-0.203337	-0.312809	-0.001413	-0.927795
38374		5.602351	1.246634	7.879598	0.000996	-0.001667	0.003844	-0.644287	-0.210693	-0.285156	-0.203315	-0.312772	-0.001338	-0.927812
38375		5.627125	1.207915	7.862262	0.002976	-0.002046	0.001086	-0.640381	-0.211426	-0.281250	-0.203259	-0.312761	-0.001308	-0.927828
38376		5.627381	1.220821	7.880473	0.007208	0.001544	-0.003189	-0.641602	-0.206055	-0.286133	-0.203256	-0.312731	-0.001351	-0.927838
38377		5.601827	1.237956	7.860916	0.006013	0.004721	-0.005152	-0.635254	-0.213623	-0.282471	-0.203239	-0.312637	-0.001398	-0.927874
38378		5.592858	1.247240	7.877223	0.006321	0.001521	-0.003350	-0.637939	-0.208740	-0.274658	-0.203292	-0.312594	-0.001420	-0.927877
38379		5.615746	1.234020	7.860637	0.004888	0.002736	-0.004394	-0.641113	-0.208252	-0.280518	-0.203283	-0.312569	-0.001453	-0.927887
38380		5.598397	1.238787	7.874585	0.004552	0.002565	-0.004875	-0.642578	-0.213379	-0.278076	-0.203272	-0.312524	-0.001482	-0.927905
38381		5.596158	1.224163	7.869433	0.002771	0.001433	-0.003997	-0.645020	-0.209961	-0.281006	-0.203286	-0.312505	-0.001484	-0.927908
38382		5.604238	1.229712	7.871840	0.003538	0.000965	-0.005116	-0.637451	-0.215088	-0.289307	-0.203274	-0.312482	-0.001502	-0.927918
38383		5.588821	1.238423	7.872428	0.003196	-0.000294	-0.004396	-0.639404	-0.205811	-0.283203	-0.203369	-0.312426	-0.001480	-0.927916
38384		5.590349	1.243699	7.859149	0.002302	-0.001404	-0.003357	-0.636230	-0.209229	-0.282959	-0.203342	-0.312405	-0.001463	-0.927929
38385		5.594674	1.224543	7.881799	0.002826	-0.004921	-0.002354	-0.639893	-0.209961	-0.289307	-0.203352	-0.312424	-0.001431	-0.927921
38386		5.610746	1.218438	7.880341	0.005816	-0.004791	-0.003669	-0.644287	-0.208252	-0.283203	-0.203367	-0.312427	-0.001434	-0.927917
38387		5.605738	1.197083	7.863531	0.013095	-0.007429	-0.007616	-0.641113	-0.216797	-0.290039	-0.203339	-0.312513	-0.001550	-0.927894
38388		5.607675	1.229269	7.849069	0.014832	-0.009883	-0.011734	-0.642578	-0.211426	-0.283447	-0.203470	-0.312601	-0.001669	-0.927835
38389		5.602231	1.257005	7.868970	0.012668	-0.004728	-0.010701	-0.643555	-0.206055	-0.283936	-0.203517	-0.312652	-0.001792	-0.927807
38390		5.596799	1.248236	7.870886	0.008931	-0.002109	-0.008388	-0.639893	-0.204834	-0.291260	-0.203495	-0.312657	-0.001876	-0.927810
38391		5.601043	1.259080	7.880854	0.007848	0.000470	-0.007873	-0.639648	-0.207764	-0.284912	-0.203507	-0.312587	-0.001936	-0.927831
38392		5.592060	1.257119	7.878537	0.005766	0.002643	-0.006518	-0.645508	-0.207520	-0.281738	-0.203517	-0.312519	-0.001979	-0.927852
38393		5.585233	1.270414	7.881283	0.004397	-0.003474	-0.002430	-0.642090	-0.208252	-0.283691	-0.203430	-0.312544	-0.001992	-0.927862
38394		5.584372	1.255163	7.875302	0.002179	-0.005050	0.001251	-0.643311	-0.204346	-0.280762	-0.203347	-0.312566	-0.001949	-0.927873
38395		5.597899	1.244085	7.850360	0.001166	-0.006651	0.001012	-0.644287	-0.211182	-0.288818	-0.203216	-0.312618	-0.001905	-0.927885
38396		5.604674	1.240536	7.877885	0.003715	-0.005990	-0.000987	-0.641113	-0.216797	-0.285400	-0.203188	-0.312637	-0.001878	-0.927884
38397		5.601285	1.233431	7.866719	0.003614	-0.004201	-0.002390	-0.646484	-0.209717	-0.293457	-0.203239	-0.312650	-0.001852	-0.927869
38398		5.607737	1.247022	7.863289	0.005275	-0.003563	-0.004550	-0.640625	-0.209961	-0.281250	-0.203236	-0.312624	-0.001860	-0.927878
38399		5.602657	1.236611	7.865243	0.006927	-0.005097	-0.004305	-0.643311	-0.209717	-0.283203	-0.203219	-0.312669	-0.001894	-0.927867
38400		5.590042	1.261756	7.870224	0.005929	-0.005503	-0.003465	-0.644043	-0.209961	-0.284180	-0.203181	-0.312711	-0.001914	-0.927861
38401		5.589531	1.247258	7.863886	0.005143	-0.007315	-0.002222	-0.640869	-0.205322	-0.280029	-0.203133	-0.312769	-0.001915	-0.927852
38402		5.615905	1.249478	7.851378	0.003717	-0.005993	-0.000986	-0.642578	-0.211182	-0.288086	-0.203039	-0.312817	-0.001905	-0.927856
38403		5.598777	1.237473	7.858865	0.002935	-0.006719	-0.000945	-0.636719	-0.211426	-0.289551	-0.203028	-0.312841	-0.001863	-0.927851
38404		5.614134	1.254584	7.857519	0.001956	-0.004842	-0.000229	-0.644043	-0.217285	-0.287354	-0.203071	-0.312822	-0.001793	-0.927848
38405		5.605287	1.246752	7.867460	0.003718	-0.005994	-0.000986	-0.643066	-0.207520	-0.278809	-0.203102	-0.312850	-0.001759	-0.927831
38406		5.591206	1.254895	7.867185	0.003166	-0.005845	-0.000666	-0.640137	-0.214600	-0.287598	-0.203006	-0.312907	-0.001747	-0.927833
38407		5.607655	1.248411	7.865509	0.004040	-0.007020	-0.001584	-0.641113	-0.212646	-0.284668	-0.203052	-0.312937	-0.001710	-0.927813
38408		5.621467	1.249992	7.858719	0.003934	-0.006317	-0.001785	-0.641846	-0.207031	-0.288086	-0.203060	-0.312972	-0.001685	-0.927800
38409		5.601485	1.246217	7.861251	0.005283	-0.004544	-0.001068	-0.635498	-0.206787	-0.287842	-0.203008	-0.312969	-0.001680	-0.927812
38410		5.594238	1.254997	7.876427	0.005605	-0.005569	-0.001666	-0.635010	-0.210938	-0.282959	-0.203010	-0.312968	-0.001664	-0.927812
38411		5.602236	1.232724	7.853868	0.005019	-0.009987	-0.001096	-0.638184	-0.204346	-0.281494	-0.203033	-0.313044	-0.001631	-0.927782
38412		5.610044	1.258020	7.867980	0.006368	-0.008214	-0.000379	-0.636963	-0.213867	-0.289551	-0.202939	-0.313109	-0.001637	-0.927780
38413		5.612977	1.263245	7.853632	0.004270	-0.007233	-0.000101	-0.641602	-0.217285	-0.281006	-0.203001	-0.313123	-0.001583	-0.927762
38414		5.615307	1.240202	7.852360	0.004163	-0.006530	-0.000303	-0.639404	-0.215088	-0.290039	-0.203027	-0.313183	-0.001554	-0.927736
38415		5.630412	1.229725	7.863690	0.004931	-0.007003	-0.001423	-0.646973	-0.211914	-0.275879	-0.203095	-0.313198	-0.001516	-0.927716
38416		5.601328	1.246131	7.863807	0.007678	-0.007866	-0.005303	-0.645752	-0.216797	-0.284180	-0.203046	-0.313313	-0.001575	-0.927688
38417		5.595824	1.247726	7.847051	0.004687	-0.009079	-0.002777	-0.645752	-0.205811	-0.285645	-0.203076	-0.313393	-0.001558	-0.927654
38418		5.625780	1.254173	7.857363	0.005897	-0.011170	-0.002011	-0.635986	-0.211670	-0.290283	-0.202978	-0.313482	-0.001564	-0.927646
38419		5.604533	1.270106	7.872406	0.003582	-0.010952	0.000270	-0.635742	-0.208984	-0.283691	-0.203026	-0.313526	-0.001491	-0.927620
38420		5.614896	1.262926	7.854721	0.001481	-0.011057	0.001752	-0.640625	-0.204590	-0.279053	-0.203009	-0.313595	-0.001406	-0.927601
38421		5.638135	1.239797	7.862269	0.002461	-0.015111	0.003445	-0.645752	-0.214600	-0.281738	-0.202860	-0.313742	-0.001345	-0.927584
38422		5.632871	1.251715	7.826495	0.002677	-0.015436	0.002645	-0.633301	-0.220459	-0.287354	-0.202810	-0.313898	-0.001274	-0.927542
38423		5.617774	1.251115	7.851275	0.003798	-0.013453	0.001878	-0.641357	-0.212891	-0.284180	-0.202959	-0.313986	-0.001169	-0.927480
38424		5.635634	1.243940	7.848646	0.002266	-0.012508	0.004118	-0.641602	-0.208008	-0.285156	-0.202922	-0.314082	-0.001082	-0.927456
38425		5.653558	1.236217	7.846046	0.000489	-0.013640	0.005005	-0.646484	-0.210938	-0.274414	-0.202827	-0.314177	-0.000977	-0.927444
38426		5.645093	1.239496	7.836838	0.003832	-0.012144	0.005235	-0.637451	-0.216064	-0.285889	-0.202679	-0.314330	-0.000936	-0.927425
38427		5.637719	1.242487	7.864562	-0.000013	-0.007719	0.006148	-0.642334	-0.211426	-0.284424	-0.202712	-0.314349	-0.000805	-0.927412
38428		5.653048	1.246070	7.844806	-0.000976	-0.004637	0.007941	-0.639893	-0.209473	-0.283203	-0.202631	-0.314341	-0.000687	-0.927432
38429		5.642499	1.220785	7.849858	0.001674	-0.003599	0.004931	-0.641602	-0.208252	-0.278320	-0.202566	-0.314329	-0.000616	-0.927450
38430		5.632444	1.224534	7.841730	0.004735	-0.006580	0.001653	-0.640137	-0.211670	-0.283203	-0.202484	-0.314386	-0.000600	-0.927449
38431		5.639449	1.237687	7.837877	0.006176	-0.005623	0.000287	-0.645752	-0.207031	-0.278076	-0.202485	-0.314411	-0.000588	-0.927440
38432		5.654279	1.227305	7.849374	0.004396	-0.004580	-0.001234	-0.645020	-0.218262	-0.294678	-0.202393	-0.314451	-0.000597	-0.927447
38433		5.638551	1.248035	7.831130	0.007171	-0.004134	-0.001762	-0.636719	-0.210449	-0.279541	-0.202504	-0.314415	-0.000582	-0.927435
38434		5.633475	1.237244	7.833232	0.003720	-0.003839	-0.003397	-0.642822	-0.218994	-0.279541	-0.202555	-0.314424	-0.000562	-0.927421
38435		5.652482	1.234685	7.855225	0.001178	-0.004495	-0.001388	-0.645996	-0.207520	-0.282471	-0.202659	-0.314454	-0.000494	-0.927388
38436		5.636221	1.242457	7.818949	0.000874	-0.002266	0.000286	-0.645996	-0.214355	-0.287598	-0.202583	-0.314436	-0.000453	-0.927411
38437		5.632799	1.246128	7.826554	-0.000120	-0.003756	0.002335	-0.647461	-0.211182	-0.290039	-0.202593	-0.314412	-0.000363	-0.927416
38438		5.649690	1.226342	7.843818	-0.000640	0.000970	0.002399	-0.641357	-0.212891	-0.288330	-0.202561	-0.314319	-0.000287	-0.927455
38439		5.632940	1.229048	7.857878	-0.001975	0.001481	0.001560	-0.645752	-0.209717	-0.277344	-0.202605	-0.314217	-0.000185	-0.927480
38440		5.643602	1.213281	7.847008	0.000338	0.000172	0.000479	-0.644775	-0.206543	-0.281738	-0.202548	-0.314200	-0.000144	-0.927498
38441		5.642401	1.237192	7.847311	0.000016	0.002287	-0.000128	-0.636475	-0.210205	-0.285889	-0.202478	-0.314130	-0.000108	-0.927537
38442		5.653128	1.233939	7.854877	0.002897	0.002028	-0.000454	-0.642090	-0.212891	-0.285645	-0.202521	-0.314036	-0.000072	-0.927560
38443		5.645076	1.206748	7.852745	0.004319	0.002871	-0.004102	-0.647461	-0.206543	-0.274658	-0.202596	-0.313952	-0.000074	-0.927572
38444		5.641038	1.177722	7.842316	0.011310	0.000069	-0.016394	-0.646484	-0.208252	-0.286377	-0.202630	-0.313981	-0.000243	-0.927554
38445		5.647049	1.181352	7.869459	0.028081	-0.010534	-0.035481	-0.644531	-0.204590	-0.283203	-0.202879	-0.314112	-0.000632	-0.927455
38446		5.623232	1.270885	7.852404	0.030840	-0.015767	-0.034544	-0.639648	-0.201660	-0.281250	-0.203052	-0.314318	-0.001049	-0.927347
38447		5.638543	1.257689	7.843592	0.027250	-0.012527	-0.028666	-0.642822	-0.211426	-0.280273	-0.203153	-0.314473	-0.001412	-0.927272
38448		5.618232	1.285583	7.844605	0.024610	-0.013573	-0.025651	-0.644287	-0.215088	-0.285156	-0.203327	-0.314653	-0.001712	-0.927172
38449		5.612855	1.292265	7.826870	0.016031	-0.011243	-0.016754	-0.636475	-0.209961	-0.287842	-0.203481	-0.314763	-0.001868	-0.927101
38450		5.631066	1.305411	7.829616	0.010787	-0.006321	-0.008842	-0.646240	-0.209229	-0.281006	-0.203563	-0.314766	-0.001938	-0.927082
38451		5.644185	1.280830	7.835786	0.007598	-0.004912	-0.005638	-0.642334	-0.210693	-0.287354	-0.203504	-0.314800	-0.002000	-0.927083
38452		5.638858	1.270669	7.838062	0.005395	-0.000935	-0.005694	-0.641602	-0.211914	-0.275146	-0.203531	-0.314741	-0.002021	-0.927097
38453		5.651214	1.273182	7.832026	0.006405	0.000671	-0.005466	-0.642334	-0.212891	-0.282227	-0.203524	-0.314732	-0.002076	-0.927102
38454		5.653655	1.267345	7.837011	0.006067	0.000496	-0.005944	-0.644775	-0.214111	-0.269531	-0.203558	-0.314689	-0.002113	-0.927109
38455		5.653173	1.269539	7.837005	0.006844	0.002305	-0.007198	-0.645508	-0.209717	-0.279541	-0.203548	-0.314702	-0.002197	-0.927106
38456		5.630502	1.290916	7.840711	0.008520	0.001972	-0.005880	-0.638184	-0.207275	-0.281006	-0.203489	-0.314665	-0.002289	-0.927132
38457		5.634421	1.289752	7.832348	0.008147	-0.002904	-0.008370	-0.635498	-0.208496	-0.295410	-0.203494	-0.314659	-0.002361	-0.927132
38458		5.616435	1.279641	7.840479	0.007148	-0.002224	-0.008732	-0.646240	-0.212891	-0.275146	-0.203613	-0.314560	-0.002382	-0.927140
38459		5.644677	1.275784	7.833114	0.008907	-0.005673	-0.009356	-0.635254	-0.219971	-0.273438	-0.203602	-0.314643	-0.002478	-0.927114
38460		5.644311	1.276032	7.844871	0.015952	-0.008280	-0.017084	-0.637939	-0.218750	-0.286621	-0.203838	-0.314768	-0.002631	-0.927019
38461		5.616193	1.287911	7.813051	0.014509	-0.011526	-0.015578	-0.645020	-0.213379	-0.287354	-0.204076	-0.314858	-0.002739	-0.926936
38462		5.639526	1.293506	7.856917	0.011864	-0.012555	-0.012560	-0.643066	-0.215820	-0.278320	-0.204152	-0.314955	-0.002836	-0.926886
38463		5.640941	1.300520	7.805391	0.007829	-0.009702	-0.003882	-0.634521	-0.217773	-0.291260	-0.204155	-0.315056	-0.002864	-0.926851
38464		5.649332	1.302359	7.819572	0.003421	-0.003907	-0.001586	-0.636719	-0.209473	-0.278076	-0.204299	-0.314994	-0.002794	-0.926840
38465		5.635981	1.298482	7.838122	0.003335	-0.000786	0.000354	-0.639160	-0.217041	-0.289551	-0.204227	-0.314962	-0.002783	-0.926867
38466		5.619667	1.302075	7.851765	0.000774	-0.001561	0.000088	-0.644287	-0.218750	-0.284668	-0.204305	-0.314883	-0.002700	-0.926877
38467		5.636141	1.286673	7.819498	-0.001099	-0.000776	0.001850	-0.640137	-0.214844	-0.274414	-0.204337	-0.314830	-0.002606	-0.926888
38468		5.650525	1.287148	7.850128	0.001013	0.000527	0.001433	-0.641602	-0.213623	-0.278564	-0.204305	-0.314811	-0.002562	-0.926902
38469		5.636427	1.298369	7.837820	0.000012	0.001208	0.001072	-0.638672	-0.215332	-0.281006	-0.204265	-0.314761	-0.002511	-0.926928
38470		5.648849	1.298796	7.832053	0.000909	0.000151	0.002437	-0.640381	-0.219971	-0.284912	-0.204264	-0.314709	-0.002445	-0.926946
38471		5.633454	1.278273	7.845915	0.002672	0.000070	0.000470	-0.643066	-0.218018	-0.276367	-0.204352	-0.314650	-0.002387	-0.926947
38472		5.642094	1.283502	7.847817	0.005656	-0.002101	-0.000726	-0.645996	-0.217041	-0.278320	-0.204365	-0.314674	-0.002390	-0.926936
38473		5.634042	1.280480	7.845133	0.004625	-0.002756	-0.004439	-0.641602	-0.212891	-0.279785	-0.204395	-0.314696	-0.002400	-0.926921
38474		5.632731	1.293973	7.826485	0.005860	-0.000269	-0.003941	-0.639160	-0.218262	-0.284180	-0.204385	-0.314671	-0.002433	-0.926932
38475		5.631633	1.291865	7.839177	0.007174	-0.003192	-0.005245	-0.642334	-0.216797	-0.281006	-0.204498	-0.314661	-0.002448	-0.926911
38476		5.634970	1.286084	7.843550	0.007519	-0.004097	-0.003559	-0.644043	-0.213623	-0.277344	-0.204534	-0.314684	-0.002475	-0.926895
38477		5.630270	1.303656	7.832393	0.006850	-0.005530	-0.003306	-0.640869	-0.213623	-0.281006	-0.204497	-0.314742	-0.002510	-0.926883
38478		5.617723	1.300999	7.850188	0.007613	-0.008301	-0.004288	-0.642578	-0.212402	-0.280029	-0.204501	-0.314806	-0.002540	-0.926860
38479		5.657687	1.269221	7.812855	0.009709	-0.010499	-0.005640	-0.639160	-0.214111	-0.281982	-0.204478	-0.314908	-0.002603	-0.926830
38480		5.636222	1.314485	7.814739	0.007940	-0.009338	-0.004881	-0.638672	-0.216553	-0.278320	-0.204510	-0.314976	-0.002628	-0.926800
38481		5.651421	1.304864	7.826008	0.003639	-0.004241	-0.002382	-0.636230	-0.215332	-0.283691	-0.204560	-0.314995	-0.002603	-0.926783
38482		5.614796	1.304228	7.842808	0.003965	-0.005275	-0.002976	-0.645020	-0.213623	-0.280762	-0.204628	-0.314990	-0.002572	-0.926770
38483		5.625202	1.301095	7.812771	-0.000002	-0.005660	0.001486	-0.644043	-0.215332	-0.279297	-0.204563	-0.315012	-0.002507	-0.926777
38484		5.627794	1.288966	7.830320	-0.001004	-0.004979	0.001125	-0.648682	-0.217285	-0.277832	-0.204539	-0.315031	-0.002426	-0.926776
38485		5.640109	1.285256	7.836864	-0.000339	-0.005837	0.001009	-0.645752	-0.212891	-0.279541	-0.204510	-0.315080	-0.002355	-0.926766
38486		5.645572	1.309126	7.814704	0.000221	-0.007070	0.001897	-0.634766	-0.221680	-0.280273	-0.204425	-0.315125	-0.002291	-0.926769
38487		5.643924	1.288452	7.822006	-0.002427	-0.004720	0.003571	-0.640869	-0.217529	-0.275879	-0.204551	-0.315121	-0.002138	-0.926743
38488		5.637576	1.271630	7.837806	-0.000442	-0.000552	0.000527	-0.637939	-0.216797	-0.278076	-0.204587	-0.315105	-0.002064	-0.926741
38489		5.656052	1.284279	7.828755	0.000569	-0.002313	0.002097	-0.644043	-0.213135	-0.285889	-0.204614	-0.315093	-0.001986	-0.926739
38490		5.654019	1.303980	7.841598	0.000346	-0.000904	0.001686	-0.640137	-0.219238	-0.287354	-0.204568	-0.315028	-0.001927	-0.926772
38491		5.655484	1.279677	7.841505	-0.000075	-0.001326	0.004493	-0.649414	-0.207520	-0.280029	-0.204618	-0.314960	-0.001817	-0.926784
38492		5.640289	1.258698	7.855401	0.000677	0.000353	0.000954	-0.635254	-0.215088	-0.275391	-0.204445	-0.314920	-0.001807	-0.926836
38493		5.630226	1.294443	7.821836	0.003445	0.001878	-0.000791	-0.644043	-0.205566	-0.283691	-0.204484	-0.314876	-0.001788	-0.926842
38494		5.632610	1.287317	7.827128	0.002554	0.001855	-0.000947	-0.646973	-0.211914	-0.282471	-0.204336	-0.314791	-0.001805	-0.926903
38495		5.641497	1.276622	7.860460	0.005225	-0.003737	0.001007	-0.637695	-0.215820	-0.277100	-0.204238	-0.314798	-0.001811	-0.926923
38496		5.656187	1.282402	7.840553	0.005180	-0.006289	-0.003414	-0.638672	-0.224609	-0.279541	-0.204304	-0.314851	-0.001801	-0.926890
38497		5.637493	1.283160	7.830137	0.007631	-0.004811	-0.003358	-0.643799	-0.217773	-0.281006	-0.204501	-0.314890	-0.001785	-0.926833
38498		5.640818	1.277311	7.834550	0.007186	-0.001992	-0.004180	-0.645020	-0.208740	-0.278320	-0.204568	-0.314889	-0.001811	-0.926819
38499		5.638231	1.287217	7.828939	0.007628	-0.001441	-0.004707	-0.640869	-0.218262	-0.277832	-0.204477	-0.314890	-0.001889	-0.926839
38500		5.620340	1.276320	7.837310	0.005854	-0.002568	-0.003808	-0.641113	-0.209473	-0.281982	-0.204561	-0.314905	-0.001893	-0.926815
38501		5.640003	1.266850	7.828013	0.005640	-0.002238	-0.003010	-0.640381	-0.211182	-0.279785	-0.204500	-0.314883	-0.001925	-0.926836
38502		5.633719	1.280182	7.830247	0.005954	-0.004485	-0.004672	-0.639160	-0.223389	-0.272705	-0.204485	-0.314900	-0.001956	-0.926833
38503		5.628794	1.297735	7.819199	0.007073	-0.003581	-0.004246	-0.641357	-0.212402	-0.273193	-0.204651	-0.314960	-0.001956	-0.926776
38504		5.649928	1.292171	7.796588	0.003529	-0.003542	-0.002587	-0.645996	-0.218750	-0.284912	-0.204620	-0.315000	-0.001957	-0.926770
38505		5.638332	1.276605	7.833374	0.001532	-0.003259	-0.002100	-0.642578	-0.218018	-0.283447	-0.204690	-0.314982	-0.001903	-0.926760
38506		5.646934	1.281942	7.835248	0.003750	0.000709	-0.003667	-0.637939	-0.223145	-0.275391	-0.204774	-0.314924	-0.001890	-0.926761
38507		5.638459	1.278617	7.832954	0.001964	-0.001629	-0.003837	-0.638916	-0.212646	-0.280273	-0.204964	-0.314931	-0.001830	-0.926717
38508		5.647081	1.284034	7.834800	0.003532	-0.001252	-0.002728	-0.645020	-0.213623	-0.277588	-0.204962	-0.314900	-0.001826	-0.926728
38509		5.641668	1.273022	7.837429	0.005089	-0.002087	-0.002688	-0.642578	-0.214844	-0.278076	-0.204934	-0.314911	-0.001846	-0.926731
38510		5.622542	1.285475	7.845850	0.004865	-0.000678	-0.003100	-0.644531	-0.214111	-0.275146	-0.204944	-0.314899	-0.001859	-0.926732
38511		5.658787	1.284710	7.841066	0.005080	-0.001009	-0.003899	-0.640625	-0.214111	-0.273926	-0.204937	-0.314910	-0.001885	-0.926730
38512		5.630954	1.280807	7.829064	0.005416	-0.003123	-0.003280	-0.645508	-0.214355	-0.285400	-0.204939	-0.314946	-0.001904	-0.926717
38513		5.635652	1.290748	7.838736	0.006863	-0.000963	-0.003588	-0.647217	-0.218750	-0.277344	-0.204933	-0.314907	-0.001941	-0.926732
38514		5.627354	1.288097	7.836209	0.006084	-0.001691	-0.003537	-0.646240	-0.215332	-0.282227	-0.204978	-0.314927	-0.001960	-0.926715
38515		5.642874	1.282634	7.834993	0.005961	-0.002200	-0.004812	-0.638916	-0.219238	-0.280518	-0.204996	-0.314920	-0.001989	-0.926714
38516		5.632099	1.287783	7.827096	0.006421	-0.003806	-0.002918	-0.644043	-0.215088	-0.275635	-0.205088	-0.314932	-0.001987	-0.926689
38517		5.640111	1.289894	7.841539	0.006307	-0.005394	-0.002983	-0.641113	-0.210449	-0.278809	-0.205081	-0.314994	-0.002009	-0.926670
38518		5.643456	1.299499	7.814294	0.006534	-0.004512	-0.002712	-0.641357	-0.220459	-0.281982	-0.205013	-0.315017	-0.002046	-0.926677
38519		5.644495	1.285179	7.845038	0.004424	-0.003523	-0.002430	-0.643555	-0.217529	-0.283691	-0.205115	-0.315018	-0.002018	-0.926654
38520		5.633924	1.290158	7.837021	0.006852	-0.004471	-0.004515	-0.644775	-0.217773	-0.277832	-0.205174	-0.315027	-0.002037	-0.926638
38521		5.631864	1.299634	7.831062	0.005429	-0.004205	-0.002069	-0.645508	-0.211426	-0.285645	-0.205201	-0.315065	-0.002036	-0.926619
38522		5.650826	1.285796	7.834629	0.004547	-0.005307	-0.001013	-0.638916	-0.216309	-0.284180	-0.205121	-0.315063	-0.002039	-0.926637
38523		5.639289	1.286247	7.839688	0.004435	-0.004603	-0.001219	-0.640137	-0.210693	-0.281982	-0.205156	-0.315054	-0.002015	-0.926633
38524		5.656412	1.284428	7.825077	0.006751	-0.002555	-0.003654	-0.646484	-0.220947	-0.282227	-0.205109	-0.315035	-0.002059	-0.926649
38525		5.638245	1.288942	7.802038	0.004302	-0.001744	-0.003848	-0.646240	-0.218506	-0.277100	-0.205209	-0.315024	-0.002044	-0.926631
38526		5.636134	1.282321	7.827933	0.004651	-0.002644	-0.002160	-0.641846	-0.221191	-0.272705	-0.205244	-0.315048	-0.002038	-0.926615
38527		5.645072	1.288277	7.829439	0.006526	-0.003439	-0.003924	-0.642090	-0.220215	-0.277100	-0.205352	-0.315105	-0.002046	-0.926571
38528		5.644016	1.273869	7.823791	0.004743	-0.003487	-0.004233	-0.638672	-0.211426	-0.283691	-0.205457	-0.315133	-0.002034	-0.926539
38529		5.631010	1.298765	7.828776	0.006538	-0.004517	-0.002712	-0.645752	-0.213379	-0.280762	-0.205413	-0.315124	-0.002064	-0.926552
38530		5.641646	1.293044	7.848523	0.004630	-0.002783	-0.004440	-0.640625	-0.216309	-0.282959	-0.205396	-0.315122	-0.002085	-0.926556
38531		5.627606	1.293757	7.817378	0.006076	-0.002914	-0.004607	-0.644775	-0.218262	-0.285400	-0.205446	-0.315107	-0.002103	-0.926550
38532		5.630831	1.287640	7.821962	0.004631	-0.002784	-0.004440	-0.642578	-0.213623	-0.290771	-0.205515	-0.315083	-0.002099	-0.926543
38533		5.653555	1.270224	7.817677	0.004755	-0.004566	-0.003021	-0.637939	-0.214111	-0.279785	-0.205502	-0.315042	-0.002101	-0.926560
38534		5.636474	1.298585	7.830763	0.003423	-0.002848	-0.002791	-0.645020	-0.216064	-0.283447	-0.205514	-0.315029	-0.002089	-0.926562
38535		5.639821	1.291847	7.835367	0.003875	-0.003375	-0.002108	-0.643066	-0.218994	-0.286377	-0.205520	-0.315019	-0.002077	-0.926564
38536		5.632811	1.292345	7.819761	0.002756	0.000304	-0.002821	-0.639160	-0.217529	-0.279297	-0.205597	-0.314948	-0.002047	-0.926571
38537		5.635584	1.285247	7.824839	0.001660	-0.000464	-0.000965	-0.643311	-0.219238	-0.282715	-0.205645	-0.314912	-0.002002	-0.926572
38538		5.636162	1.298086	7.842728	0.002418	-0.002167	-0.003152	-0.643799	-0.213379	-0.278809	-0.205728	-0.314890	-0.001964	-0.926561
38539		5.629406	1.298725	7.826914	0.004982	-0.003684	-0.002751	-0.653564	-0.203613	-0.285400	-0.205694	-0.314908	-0.001980	-0.926563
38540		5.637957	1.292074	7.810340	0.003332	-0.002004	-0.000719	-0.646240	-0.222412	-0.284668	-0.205445	-0.314873	-0.002023	-0.926630
38541		5.620881	1.292295	7.836871	0.004441	-0.004607	-0.001217	-0.645508	-0.210205	-0.287109	-0.205539	-0.314884	-0.001984	-0.926606
38542		5.641454	1.294511	7.845418	0.004994	-0.004762	-0.001539	-0.640869	-0.208984	-0.275635	-0.205440	-0.314868	-0.002002	-0.926633
38543		5.647528	1.295945	7.823379	0.005311	-0.004724	-0.003342	-0.645996	-0.214844	-0.276611	-0.205351	-0.314905	-0.002039	-0.926640
38544		5.646971	1.293374	7.835874	0.004316	-0.002827	-0.002637	-0.641602	-0.224854	-0.283447	-0.205330	-0.314929	-0.002047	-0.926637
38545		5.635072	1.294152	7.841170	0.005537	-0.003842	-0.003073	-0.645020	-0.210938	-0.282471	-0.205501	-0.314933	-0.002015	-0.926597
38546		5.641329	1.307367	7.837470	0.002114	-0.003284	-0.000136	-0.647949	-0.216553	-0.275146	-0.205408	-0.314918	-0.001997	-0.926623
38547		5.650576	1.284500	7.852335	0.003911	-0.004313	0.001385	-0.645264	-0.213623	-0.266113	-0.205359	-0.314971	-0.001978	-0.926616
38548		5.652492	1.289244	7.838495	0.004554	-0.003021	-0.001155	-0.639893	-0.213379	-0.279785	-0.205292	-0.315050	-0.001997	-0.926604
38549		5.629321	1.292896	7.836622	0.002769	-0.003068	-0.001463	-0.637451	-0.210693	-0.282227	-0.205276	-0.315041	-0.001976	-0.926611
38550		5.645152	1.286445	7.835344	0.003108	-0.002890	-0.000987	-0.638428	-0.211426	-0.278076	-0.205227	-0.315009	-0.001963	-0.926632
38551		5.641411	1.278874	7.824628	0.003336	-0.004300	-0.000572	-0.645508	-0.216797	-0.283691	-0.205175	-0.315020	-0.001950	-0.926640
38552		5.632253	1.299446	7.821748	0.005196	-0.001730	-0.003696	-0.646484	-0.218018	-0.288574	-0.205210	-0.314995	-0.001959	-0.926641
38553		5.655116	1.294229	7.835780	0.005887	-0.002448	-0.001531	-0.643066	-0.212158	-0.277832	-0.205241	-0.314957	-0.001957	-0.926647
38554		5.631944	1.298029	7.833889	0.003223	-0.003595	-0.000780	-0.649170	-0.215576	-0.288330	-0.205178	-0.314971	-0.001949	-0.926656
38555		5.643342	1.283728	7.822440	0.005864	-0.002591	-0.003811	-0.641113	-0.212891	-0.277588	-0.205184	-0.314938	-0.001970	-0.926666
38556		5.632727	1.300623	7.832895	0.004214	-0.000908	-0.001778	-0.648682	-0.212646	-0.288086	-0.205151	-0.314921	-0.001979	-0.926679
38557		5.635681	1.293839	7.837816	0.003322	-0.000932	-0.001932	-0.645996	-0.217529	-0.278809	-0.205101	-0.314861	-0.001978	-0.926711
38558		5.635562	1.282644	7.819333	0.003764	-0.002676	-0.002314	-0.648682	-0.210449	-0.278076	-0.205125	-0.314872	-0.001966	-0.926701
38559		5.640257	1.291958	7.829068	0.003661	-0.000753	-0.001457	-0.651611	-0.211426	-0.273682	-0.205015	-0.314861	-0.001989	-0.926729
38560		5.642012	1.281184	7.847210	0.003661	-0.000753	-0.001457	-0.646729	-0.217529	-0.281982	-0.204894	-0.314881	-0.002018	-0.926750
38561		5.632257	1.289488	7.826348	0.005110	-0.003179	-0.001477	-0.638184	-0.211914	-0.277100	-0.204905	-0.314885	-0.002016	-0.926745
38562		5.639760	1.290948	7.841289	0.002440	0.000262	-0.001020	-0.635986	-0.203613	-0.287354	-0.204873	-0.314847	-0.002003	-0.926766
38563		5.640878	1.295246	7.828077	0.001571	0.000382	0.001105	-0.642090	-0.217529	-0.282227	-0.204736	-0.314737	-0.001985	-0.926833
38564		5.640889	1.267989	7.841487	0.004225	0.000309	-0.000713	-0.640137	-0.214111	-0.287842	-0.204773	-0.314691	-0.001969	-0.926841
38565		5.621568	1.280212	7.850087	0.004530	-0.000874	-0.003582	-0.634766	-0.216309	-0.282715	-0.204817	-0.314621	-0.001966	-0.926855
38566		5.648250	1.298728	7.842778	0.003312	-0.002152	-0.002997	-0.635742	-0.218994	-0.290527	-0.204909	-0.314584	-0.001932	-0.926847
38567		5.639973	1.295347	7.840411	0.003762	-0.000384	-0.002462	-0.653320	-0.213135	-0.269775	-0.205047	-0.314491	-0.001887	-0.926848
38568		5.645989	1.280784	7.850363	0.004118	-0.003573	-0.000624	-0.645508	-0.210938	-0.281982	-0.204923	-0.314573	-0.001913	-0.926848
38569		5.626864	1.280384	7.840495	0.002896	-0.002558	-0.000188	-0.643311	-0.217529	-0.279785	-0.204836	-0.314557	-0.001905	-0.926872
38570		5.628555	1.285035	7.826807	0.004004	-0.002869	-0.000832	-0.645264	-0.209961	-0.288330	-0.204861	-0.314563	-0.001885	-0.926865
38571		5.644402	1.278901	7.825471	0.005111	-0.003181	-0.001476	-0.639404	-0.223145	-0.272949	-0.204786	-0.314525	-0.001900	-0.926894
38572		5.626772	1.295151	7.820479	0.005890	-0.002453	-0.001531	-0.637939	-0.213867	-0.289795	-0.204901	-0.314566	-0.001886	-0.926855
38573		5.642452	1.289259	7.819222	0.003866	-0.002310	-0.003319	-0.643311	-0.216064	-0.278320	-0.204954	-0.314499	-0.001867	-0.926866
38574		5.635991	1.274272	7.835128	0.004330	-0.001616	-0.001571	-0.644043	-0.208740	-0.275391	-0.204960	-0.314497	-0.001864	-0.926865
38575		5.643084	1.291316	7.818426	0.002997	-0.002189	-0.001194	-0.644043	-0.213867	-0.272949	-0.204844	-0.314507	-0.001877	-0.926888
38576		5.616994	1.274707	7.825037	0.002105	-0.002212	-0.001347	-0.639404	-0.212158	-0.281494	-0.204805	-0.314534	-0.001864	-0.926887
38577		5.634686	1.296535	7.846853	0.002319	-0.002548	-0.002145	-0.638916	-0.212402	-0.277344	-0.204798	-0.314509	-0.001842	-0.926897
38578		5.632053	1.265290	7.836531	0.004434	-0.003541	-0.002427	-0.649414	-0.215332	-0.281982	-0.204781	-0.314523	-0.001847	-0.926896
38579		5.655040	1.287672	7.836958	0.004998	-0.002478	-0.001685	-0.640137	-0.219238	-0.286377	-0.204751	-0.314524	-0.001859	-0.926902
38580		5.639867	1.296085	7.837433	0.005219	0.000701	-0.001568	-0.641113	-0.214355	-0.277588	-0.204844	-0.314454	-0.001842	-0.926906
38581		5.646468	1.273127	7.816258	0.002898	-0.002559	-0.000187	-0.643799	-0.217285	-0.274902	-0.204824	-0.314458	-0.001819	-0.926909
38582		5.639113	1.281705	7.831668	0.004788	-0.004437	-0.000737	-0.642090	-0.214600	-0.290527	-0.204828	-0.314510	-0.001811	-0.926890
38583		5.639637	1.283072	7.831067	0.006432	-0.001537	-0.003068	-0.648193	-0.216797	-0.274414	-0.204861	-0.314446	-0.001825	-0.926905
38584		5.648317	1.288922	7.832722	0.003992	-0.001798	-0.002046	-0.637207	-0.211914	-0.285645	-0.204851	-0.314475	-0.001830	-0.926897
38585		5.630333	1.277181	7.841598	0.004326	0.000676	-0.001722	-0.649170	-0.214844	-0.286621	-0.204849	-0.314394	-0.001830	-0.926925
38586		5.637387	1.279096	7.856799	0.005535	0.000732	-0.003372	-0.642090	-0.212158	-0.275635	-0.204844	-0.314335	-0.001857	-0.926946
38587		5.624636	1.295650	7.830731	0.005759	-0.004192	-0.003867	-0.643799	-0.214844	-0.286133	-0.204813	-0.314375	-0.001890	-0.926939
38588		5.628941	1.293299	7.822255	0.004756	0.000003	-0.003317	-0.644775	-0.225586	-0.286377	-0.204838	-0.314316	-0.001898	-0.926954
38589		5.627426	1.290600	7.835520	0.002751	0.002586	-0.002977	-0.640381	-0.221191	-0.281250	-0.205021	-0.314234	-0.001847	-0.926941
38590		5.630866	1.287901	7.827726	0.004413	0.002117	-0.003943	-0.645752	-0.211670	-0.276855	-0.205152	-0.314176	-0.001836	-0.926932
38591		5.621364	1.293133	7.856957	0.003525	-0.000201	-0.003945	-0.639893	-0.211914	-0.281982	-0.205107	-0.314165	-0.001860	-0.926945
38592		5.625405	1.290332	7.848750	0.002985	-0.001118	-0.002408	-0.635742	-0.212891	-0.281250	-0.205088	-0.314127	-0.001855	-0.926963
38593		5.642264	1.288255	7.834297	0.005546	-0.003858	-0.003069	-0.639404	-0.219727	-0.279053	-0.205100	-0.314125	-0.001865	-0.926961
38594		5.637074	1.277552	7.836912	0.004409	-0.001399	-0.004855	-0.649170	-0.208740	-0.285645	-0.205218	-0.314116	-0.001856	-0.926938
38595		5.626230	1.294558	7.847462	0.006229	0.000017	-0.001207	-0.638916	-0.209717	-0.285400	-0.205086	-0.314068	-0.001908	-0.926983
38596		5.615011	1.299147	7.839946	0.004094	-0.001432	-0.003052	-0.643555	-0.206543	-0.284912	-0.205049	-0.314015	-0.001920	-0.927009
38597		5.626222	1.284987	7.828669	0.006111	-0.002794	-0.002327	-0.640137	-0.214111	-0.278320	-0.204924	-0.313991	-0.001970	-0.927045
38598		5.637202	1.291642	7.866623	0.004639	-0.002811	-0.004437	-0.644043	-0.213623	-0.282959	-0.204946	-0.313999	-0.001983	-0.927037
38599		5.627382	1.300393	7.845671	0.006096	-0.001722	-0.003543	-0.636963	-0.215088	-0.288574	-0.204935	-0.313981	-0.002015	-0.927046
38600		5.616796	1.289887	7.869657	0.005981	-0.001018	-0.003752	-0.637695	-0.210205	-0.283203	-0.205003	-0.313915	-0.002021	-0.927053
38601		5.631675	1.299894	7.836901	0.006775	-0.001362	-0.002592	-0.642578	-0.217041	-0.285156	-0.204959	-0.313879	-0.002062	-0.927075
38602		5.630799	1.297651	7.849647	0.005319	-0.002452	-0.003486	-0.635986	-0.218506	-0.283447	-0.205016	-0.313858	-0.002063	-0.927069
38603		5.623826	1.298245	7.833969	0.003780	-0.001464	-0.001248	-0.635986	-0.215088	-0.269775	-0.205105	-0.313821	-0.002026	-0.927062
38604		5.642427	1.284323	7.837946	0.003547	-0.003572	-0.002576	-0.632812	-0.213379	-0.277100	-0.205122	-0.313873	-0.002019	-0.927041
38605		5.632156	1.301000	7.848119	0.004441	-0.003549	-0.002423	-0.646973	-0.219971	-0.278564	-0.205141	-0.313881	-0.002015	-0.927034
38606		5.634148	1.278327	7.847802	0.004896	-0.004073	-0.001739	-0.645020	-0.214111	-0.281982	-0.205184	-0.313922	-0.002005	-0.927010
38607		5.614928	1.278235	7.837969	0.004335	-0.001622	-0.001570	-0.634033	-0.211182	-0.290771	-0.205154	-0.313906	-0.002010	-0.927023
38608		5.632033	1.288519	7.841654	0.005204	-0.001750	-0.003696	-0.639648	-0.215332	-0.276367	-0.205175	-0.313827	-0.002018	-0.927044
38609		5.615878	1.293365	7.855161	0.005320	-0.002455	-0.003486	-0.641602	-0.213623	-0.278564	-0.205197	-0.313844	-0.002035	-0.927034
38610		5.626108	1.303067	7.843284	0.003995	-0.005321	-0.002953	-0.644775	-0.216309	-0.280029	-0.205185	-0.313880	-0.002034	-0.927024
38611		5.643355	1.273245	7.842266	0.004890	-0.001780	-0.001892	-0.646729	-0.211182	-0.286377	-0.205186	-0.313879	-0.002040	-0.927024
38612		5.618092	1.288718	7.822215	0.005114	-0.000895	-0.001627	-0.628174	-0.222168	-0.284668	-0.205109	-0.313835	-0.002067	-0.927056
38613		5.618603	1.302091	7.840004	0.004005	-0.000581	-0.000983	-0.635254	-0.212646	-0.282715	-0.205293	-0.313772	-0.002004	-0.927037
38614		5.625085	1.278919	7.819041	0.002102	0.000076	-0.001498	-0.652344	-0.208496	-0.282715	-0.205294	-0.313709	-0.001980	-0.927058
38615		5.628322	1.284331	7.842184	0.004105	-0.000214	-0.001990	-0.643066	-0.216797	-0.282227	-0.205147	-0.313680	-0.002023	-0.927101
38616		5.628580	1.285402	7.841824	0.004907	-0.002852	-0.000675	-0.643066	-0.211426	-0.282715	-0.205156	-0.313680	-0.002014	-0.927099
38617		5.632857	1.282491	7.833466	0.002872	-0.000419	-0.002617	-0.635742	-0.208496	-0.277588	-0.205113	-0.313637	-0.002018	-0.927122
38618		5.637419	1.291970	7.843218	0.004891	-0.001781	-0.001892	-0.646973	-0.215576	-0.277344	-0.205034	-0.313626	-0.002047	-0.927144
38619		5.620561	1.284293	7.838945	0.005322	0.001061	-0.002579	-0.642090	-0.214355	-0.281494	-0.205011	-0.313611	-0.002079	-0.927154
38620		5.606709	1.308747	7.844380	0.003327	-0.000944	-0.001933	-0.645508	-0.219238	-0.273682	-0.205007	-0.313584	-0.002072	-0.927164
38621		5.637528	1.295451	7.842565	0.004337	-0.001625	-0.001570	-0.650879	-0.214844	-0.277588	-0.205029	-0.313616	-0.002070	-0.927148
38622		5.629182	1.291876	7.840327	0.003675	0.000461	-0.000396	-0.635254	-0.209473	-0.282959	-0.204957	-0.313609	-0.002082	-0.927167
38623		5.629100	1.292806	7.840233	0.004784	0.000146	-0.001041	-0.637695	-0.220703	-0.290283	-0.204905	-0.313549	-0.002097	-0.927198
38624		5.616757	1.305244	7.864339	0.000986	0.002685	-0.001010	-0.645264	-0.223145	-0.278076	-0.205044	-0.313431	-0.002022	-0.927208
38625		5.621603	1.278176	7.856994	0.003419	0.001716	-0.003095	-0.640381	-0.216064	-0.280273	-0.205161	-0.313406	-0.002001	-0.927190
38626		5.622376	1.283181	7.843840	0.004429	0.001035	-0.002732	-0.639648	-0.215088	-0.290527	-0.205192	-0.313365	-0.002007	-0.927197
38627		5.614112	1.292486	7.859766	0.005415	0.000200	-0.004648	-0.640625	-0.210938	-0.283691	-0.205252	-0.313285	-0.002020	-0.927211
38628		5.614658	1.285621	7.828388	0.004521	0.000176	-0.004800	-0.640625	-0.207520	-0.281250	-0.205233	-0.313234	-0.002051	-0.927232
38629		5.587321	1.306044	7.852861	0.005208	-0.001756	-0.003694	-0.644775	-0.211426	-0.274902	-0.205140	-0.313215	-0.002099	-0.927259
38630		5.629544	1.290077	7.858157	0.005663	-0.002280	-0.003009	-0.641357	-0.223145	-0.291992	-0.205061	-0.313245	-0.002146	-0.927266
38631		5.594663	1.297244	7.849298	0.004107	-0.000217	-0.001990	-0.640625	-0.212402	-0.284424	-0.205214	-0.313172	-0.002100	-0.927257
38632		5.621563	1.287955	7.855426	0.004231	-0.003216	-0.001622	-0.642822	-0.215088	-0.280029	-0.205183	-0.313158	-0.002100	-0.927269
38633		5.606410	1.296248	7.855865	0.003751	0.000671	-0.003682	-0.637695	-0.227295	-0.274658	-0.205198	-0.313126	-0.002110	-0.927277
38634		5.620018	1.301893	7.836431	0.004215	-0.002147	-0.002840	-0.641846	-0.216553	-0.281006	-0.205396	-0.313157	-0.002065	-0.927222
38635		5.605379	1.294757	7.868636	0.003775	0.000826	-0.001404	-0.634766	-0.218262	-0.283691	-0.205411	-0.313118	-0.002059	-0.927232
38636		5.623088	1.268723	7.854987	0.005217	-0.000533	-0.002634	-0.633545	-0.215088	-0.288818	-0.205497	-0.313075	-0.002052	-0.927227
38637		5.621523	1.281723	7.836157	0.005665	-0.002282	-0.003009	-0.639160	-0.221436	-0.286377	-0.205548	-0.313025	-0.002053	-0.927233
38638		5.619284	1.303253	7.848515	0.005673	-0.001057	-0.001949	-0.642822	-0.217285	-0.286865	-0.205657	-0.312989	-0.002037	-0.927221
38639		5.588974	1.291066	7.863408	0.002751	-0.000945	-0.003888	-0.641113	-0.217041	-0.286621	-0.205720	-0.312943	-0.002017	-0.927223
38640		5.614093	1.293252	7.851113	0.003223	-0.002537	-0.001985	-0.640381	-0.208740	-0.287109	-0.205760	-0.312916	-0.001990	-0.927223
38641		5.623167	1.298666	7.852513	0.003572	-0.004651	-0.001352	-0.638428	-0.213623	-0.283447	-0.205664	-0.312901	-0.001995	-0.927249
38642		5.611998	1.290272	7.826752	0.002675	-0.001154	-0.000603	-0.639160	-0.219971	-0.280029	-0.205645	-0.312864	-0.001975	-0.927266
38643		5.622512	1.284098	7.846857	0.003778	-0.002696	-0.002307	-0.637451	-0.222900	-0.276123	-0.205734	-0.312871	-0.001946	-0.927244
38644		5.614809	1.293089	7.862427	0.004100	-0.001445	-0.003050	-0.640381	-0.216309	-0.279785	-0.205878	-0.312883	-0.001915	-0.927208
38645		5.581126	1.304011	7.840289	0.005450	-0.001944	-0.002213	-0.631348	-0.211914	-0.272705	-0.205896	-0.312885	-0.001925	-0.927203
38646		5.606805	1.278581	7.841445	0.003357	-0.004312	-0.000555	-0.638184	-0.215576	-0.283936	-0.205858	-0.312923	-0.001914	-0.927199
38647		5.612123	1.300443	7.868908	0.004995	-0.001422	-0.002898	-0.636230	-0.218506	-0.277344	-0.205885	-0.312893	-0.001921	-0.927203
38648		5.612147	1.289611	7.850358	0.006455	-0.003852	-0.002909	-0.635986	-0.218018	-0.285400	-0.205954	-0.312927	-0.001928	-0.927176
38649		5.605381	1.290490	7.834470	0.004649	-0.002832	-0.004432	-0.642578	-0.212891	-0.286133	-0.206046	-0.312905	-0.001920	-0.927164
38650		5.604935	1.288606	7.846910	0.008114	-0.005554	-0.004935	-0.638672	-0.210693	-0.287354	-0.206025	-0.312925	-0.001976	-0.927161
38651		5.620883	1.292493	7.876033	0.009129	-0.009758	-0.005471	-0.646729	-0.212646	-0.282715	-0.205984	-0.312983	-0.002041	-0.927150
38652		5.628535	1.298249	7.840207	0.006806	-0.005968	-0.002275	-0.628662	-0.220215	-0.290527	-0.205917	-0.313027	-0.002078	-0.927151
38653		5.622616	1.283748	7.855925	0.005113	-0.002129	-0.002688	-0.645264	-0.215576	-0.279541	-0.206053	-0.312964	-0.002048	-0.927142
38654		5.607622	1.292169	7.856224	0.004218	-0.002154	-0.002840	-0.637207	-0.213379	-0.285400	-0.206051	-0.312972	-0.002054	-0.927139
38655		5.628780	1.298438	7.851815	0.004003	-0.001813	-0.002043	-0.646973	-0.212158	-0.283203	-0.206036	-0.312933	-0.002055	-0.927156
38656		5.606961	1.318260	7.854837	0.004916	-0.002857	-0.000672	-0.642090	-0.212891	-0.286133	-0.205947	-0.312934	-0.002074	-0.927175
38657		5.607729	1.291669	7.868056	0.004120	-0.002518	-0.001832	-0.636230	-0.214111	-0.271973	-0.205908	-0.312909	-0.002079	-0.927192
38658		5.617188	1.288729	7.838403	0.005577	-0.001425	-0.000943	-0.642334	-0.216553	-0.281006	-0.205879	-0.312931	-0.002100	-0.927191
38659		5.613985	1.306043	7.863924	0.003127	-0.002906	-0.000976	-0.642822	-0.216064	-0.276367	-0.205886	-0.312934	-0.002076	-0.927189
38660		5.601492	1.294048	7.851540	0.004781	-0.001086	-0.002103	-0.642578	-0.215576	-0.281738	-0.205885	-0.312943	-0.002088	-0.927186
38661		5.621360	1.296553	7.860492	0.004565	-0.000745	-0.001307	-0.640625	-0.210205	-0.286621	-0.205875	-0.312921	-0.002092	-0.927196
38662		5.597212	1.288056	7.841055	0.005318	-0.000178	-0.003645	-0.638916	-0.220703	-0.281494	-0.205818	-0.312864	-0.002133	-0.927227
38663		5.606414	1.306443	7.860508	0.004447	-0.004794	-0.003474	-0.643799	-0.218018	-0.278564	-0.205926	-0.312890	-0.002108	-0.927195
38664		5.598761	1.303430	7.857721	0.005780	-0.004225	-0.003856	-0.638428	-0.215576	-0.281738	-0.205970	-0.312931	-0.002121	-0.927171
38665		5.603749	1.300690	7.848831	0.003714	-0.006429	0.000083	-0.634766	-0.218262	-0.286865	-0.205960	-0.312966	-0.002092	-0.927161
38666		5.620312	1.294379	7.847066	0.003134	-0.006432	-0.001872	-0.645752	-0.212891	-0.282471	-0.206035	-0.312974	-0.002044	-0.927142
38667		5.621660	1.307910	7.864176	0.004670	-0.003909	-0.003212	-0.640381	-0.213135	-0.282227	-0.205994	-0.312988	-0.002064	-0.927147
38668		5.598281	1.299358	7.844211	0.004689	-0.004976	-0.001993	-0.637939	-0.208008	-0.281982	-0.205961	-0.313007	-0.002070	-0.927148
38669		5.615969	1.309239	7.847430	0.002253	-0.003999	0.000093	-0.646973	-0.214355	-0.287842	-0.205841	-0.313000	-0.002062	-0.927176
38670		5.611559	1.297421	7.849850	0.002043	-0.007183	-0.000007	-0.635986	-0.211426	-0.282471	-0.205800	-0.313024	-0.002020	-0.927177
38671		5.618866	1.282420	7.859231	0.002161	-0.007888	0.000205	-0.640137	-0.218262	-0.283936	-0.205745	-0.313061	-0.001982	-0.927177
38672		5.621318	1.286350	7.844979	0.000600	-0.005820	0.001222	-0.644287	-0.212402	-0.283691	-0.205779	-0.313076	-0.001900	-0.927165
38673		5.621242	1.282856	7.857461	0.002469	-0.004342	-0.000704	-0.640137	-0.213379	-0.283691	-0.205721	-0.313080	-0.001881	-0.927176
38674		5.617683	1.315093	7.851015	0.003246	-0.003614	-0.000764	-0.644043	-0.208008	-0.284424	-0.205694	-0.313073	-0.001864	-0.927185
38675		5.606535	1.287293	7.870079	0.001156	-0.005980	0.000900	-0.637451	-0.218262	-0.287842	-0.205559	-0.313085	-0.001837	-0.927211
38676		5.628150	1.280256	7.847162	0.002607	-0.006115	0.000728	-0.641846	-0.214600	-0.279053	-0.205615	-0.313087	-0.001770	-0.927198
38677		5.623354	1.296303	7.835804	0.003919	-0.004479	-0.000875	-0.638428	-0.213379	-0.284424	-0.205593	-0.313116	-0.001760	-0.927193
38678		5.617573	1.281365	7.851593	0.004912	-0.004092	-0.001732	-0.640137	-0.217773	-0.281494	-0.205583	-0.313112	-0.001760	-0.927197
38679		5.616360	1.293871	7.832464	0.004364	-0.002704	-0.000352	-0.638428	-0.217529	-0.285645	-0.205615	-0.313111	-0.001739	-0.927190
38680		5.629129	1.304098	7.856771	0.004946	-0.007458	-0.000349	-0.646240	-0.216064	-0.289307	-0.205654	-0.313145	-0.001706	-0.927170
38681		5.613592	1.295976	7.851751	0.003816	-0.006073	-0.000924	-0.637695	-0.217773	-0.285400	-0.205657	-0.313154	-0.001679	-0.927166
38682		5.611999	1.304543	7.845401	0.003372	-0.007849	-0.001447	-0.640137	-0.213379	-0.286377	-0.205722	-0.313189	-0.001630	-0.927140
38683		5.623084	1.273318	7.828658	0.002644	-0.009483	0.002113	-0.646240	-0.216064	-0.282471	-0.205671	-0.313236	-0.001576	-0.927136
38684		5.626350	1.289804	7.832048	0.001825	-0.008077	-0.000266	-0.634033	-0.212646	-0.275146	-0.205667	-0.313293	-0.001524	-0.927117
38685		5.637954	1.283151	7.851523	0.001041	-0.005278	0.000689	-0.637939	-0.216309	-0.283936	-0.205636	-0.313324	-0.001474	-0.927113
38686		5.633377	1.271267	7.854106	0.003151	-0.003980	0.000243	-0.650635	-0.215088	-0.287354	-0.205660	-0.313318	-0.001433	-0.927111
38687		5.633506	1.286872	7.821601	0.001256	-0.005621	-0.000107	-0.641846	-0.210938	-0.278809	-0.205635	-0.313329	-0.001383	-0.927112
38688		5.633043	1.284110	7.834266	0.005988	-0.001050	-0.003764	-0.635498	-0.219971	-0.287109	-0.205590	-0.313319	-0.001431	-0.927126
38689		5.625003	1.280950	7.831814	0.005039	-0.003571	-0.000465	-0.631348	-0.214600	-0.293457	-0.205686	-0.313299	-0.001393	-0.927111
38690		5.634112	1.286540	7.833099	0.005039	-0.003571	-0.000465	-0.648926	-0.217773	-0.273926	-0.205718	-0.313240	-0.001370	-0.927124
38691		5.626382	1.283131	7.830466	0.005594	-0.003731	-0.000788	-0.642822	-0.221436	-0.279053	-0.205718	-0.313299	-0.001375	-0.927104
38692		5.627284	1.284561	7.829584	0.006816	-0.005988	-0.002278	-0.631836	-0.216309	-0.285156	-0.205815	-0.313358	-0.001367	-0.927063
38693		5.624987	1.293770	7.823619	0.005337	-0.001254	-0.002434	-0.642334	-0.214844	-0.284912	-0.205877	-0.313311	-0.001364	-0.927065
38694		5.630890	1.280019	7.833842	0.007106	-0.000141	-0.003355	-0.648438	-0.209961	-0.277588	-0.205886	-0.313272	-0.001404	-0.927076
38695		5.618255	1.281539	7.839717	0.007396	0.000944	-0.006380	-0.638428	-0.214355	-0.282227	-0.205829	-0.313256	-0.001495	-0.927094
38696		5.614657	1.300287	7.865320	0.007530	-0.002061	-0.006003	-0.647217	-0.213135	-0.282471	-0.205868	-0.313245	-0.001546	-0.927089
38697		5.619237	1.286461	7.838207	0.010374	-0.010824	-0.005900	-0.645264	-0.209473	-0.284180	-0.205848	-0.313354	-0.001622	-0.927056
38698		5.631780	1.282454	7.856607	0.010850	-0.013647	-0.005049	-0.637451	-0.218018	-0.278809	-0.205766	-0.313483	-0.001705	-0.927031
38699		5.621112	1.299821	7.828551	0.010630	-0.014539	-0.005309	-0.646973	-0.209717	-0.283447	-0.205840	-0.313639	-0.001744	-0.926962
38700		5.628975	1.314347	7.823117	0.006388	-0.011305	-0.003686	-0.638916	-0.218506	-0.276611	-0.205756	-0.313732	-0.001778	-0.926948
38701		5.639503	1.292634	7.837480	0.003943	-0.006787	-0.000708	-0.637207	-0.220459	-0.277344	-0.205800	-0.313792	-0.001743	-0.926919
38702		5.633926	1.296092	7.808359	0.002030	-0.001363	0.000725	-0.642578	-0.209717	-0.283447	-0.205872	-0.313779	-0.001682	-0.926907
38703		5.628181	1.293317	7.842572	0.004687	-0.001460	-0.001104	-0.635742	-0.221436	-0.285156	-0.205779	-0.313747	-0.001707	-0.926938
38704		5.636689	1.287142	7.825883	0.009702	-0.005203	-0.003847	-0.644531	-0.218750	-0.280762	-0.205903	-0.313765	-0.001731	-0.926905
38705		5.642299	1.298248	7.834539	0.010490	-0.008010	-0.004799	-0.644043	-0.206543	-0.281250	-0.205960	-0.313846	-0.001785	-0.926865
38706		5.646712	1.292918	7.838369	0.006811	-0.008466	-0.004386	-0.641357	-0.215576	-0.284180	-0.205840	-0.313908	-0.001848	-0.926870
38707		5.645050	1.302553	7.831842	0.006794	-0.006167	-0.004554	-0.644531	-0.221436	-0.273926	-0.205872	-0.313936	-0.001871	-0.926854
38708		5.636759	1.296421	7.842021	0.008366	-0.007010	-0.004515	-0.643555	-0.212402	-0.282471	-0.205964	-0.314029	-0.001897	-0.926802
38709		5.622907	1.305847	7.841372	0.008258	-0.009842	-0.005615	-0.641357	-0.215576	-0.284668	-0.205943	-0.314109	-0.001950	-0.926779
38710		5.638112	1.312143	7.820375	0.006403	-0.010081	-0.002626	-0.644287	-0.216553	-0.278564	-0.205951	-0.314177	-0.001952	-0.926754
38711		5.642779	1.305797	7.824198	0.003602	-0.008213	-0.002231	-0.646484	-0.217041	-0.282471	-0.205965	-0.314246	-0.001928	-0.926727
38712		5.649641	1.291122	7.833962	0.001009	-0.001917	-0.000692	-0.633545	-0.213623	-0.282227	-0.205976	-0.314223	-0.001881	-0.926733
38713		5.644002	1.306752	7.823157	0.000890	-0.001212	-0.000906	-0.643066	-0.214355	-0.279541	-0.205978	-0.314171	-0.001838	-0.926750
38714		5.627270	1.297857	7.819233	0.000555	-0.000161	-0.000324	-0.637451	-0.217773	-0.279053	-0.205954	-0.314131	-0.001800	-0.926769
38715		5.629234	1.286967	7.837703	0.002316	-0.000284	-0.002303	-0.645752	-0.214111	-0.273438	-0.206016	-0.314095	-0.001769	-0.926768
38716		5.624860	1.318963	7.831659	0.001698	-0.000312	0.001307	-0.641357	-0.218506	-0.284180	-0.205952	-0.314089	-0.001745	-0.926784
38717		5.629836	1.287405	7.837199	-0.000058	-0.004962	0.001347	-0.640381	-0.210449	-0.281006	-0.205985	-0.314087	-0.001656	-0.926778
38718		5.634901	1.283534	7.828391	0.002966	-0.005942	0.001210	-0.637451	-0.214844	-0.278076	-0.205889	-0.314108	-0.001638	-0.926792
38719		5.655129	1.312816	7.822852	0.001717	-0.002614	0.001475	-0.643555	-0.206543	-0.282471	-0.205867	-0.314098	-0.001592	-0.926800
38720		5.636637	1.296456	7.845331	0.001357	-0.000497	0.000834	-0.639648	-0.212646	-0.285400	-0.205718	-0.314047	-0.001587	-0.926850
38721		5.636434	1.284313	7.827159	0.002922	-0.002576	-0.000181	-0.650146	-0.216797	-0.280029	-0.205685	-0.314013	-0.001566	-0.926869
38722		5.641257	1.293612	7.836670	0.004475	-0.001118	-0.000312	-0.645508	-0.220215	-0.290283	-0.205667	-0.314006	-0.001565	-0.926876
38723		5.648963	1.283098	7.833200	0.005617	-0.007279	-0.001675	-0.640381	-0.209473	-0.281738	-0.205740	-0.314029	-0.001537	-0.926852
38724		5.655019	1.296928	7.829121	0.006305	0.000183	-0.004525	-0.637207	-0.218750	-0.283691	-0.205690	-0.313984	-0.001597	-0.926878
38725		5.633131	1.290049	7.846353	0.006980	-0.000684	-0.004635	-0.635986	-0.222900	-0.284180	-0.205789	-0.313948	-0.001618	-0.926868
38726		5.626168	1.291239	7.830505	0.006893	-0.005819	-0.005563	-0.641357	-0.217529	-0.277832	-0.205961	-0.313971	-0.001609	-0.926822
38727		5.638684	1.290350	7.836505	0.007348	-0.007577	-0.005931	-0.638184	-0.218750	-0.286133	-0.206032	-0.314043	-0.001637	-0.926782
38728		5.649090	1.300415	7.824094	0.003996	-0.004308	-0.004159	-0.639648	-0.206543	-0.288818	-0.206127	-0.314032	-0.001614	-0.926765
38729		5.626258	1.304041	7.822170	0.003834	-0.006092	-0.000916	-0.638916	-0.206299	-0.280762	-0.205998	-0.314022	-0.001626	-0.926797
38730		5.650032	1.298834	7.835637	0.003005	-0.004692	-0.003297	-0.642822	-0.221924	-0.273193	-0.205895	-0.314025	-0.001646	-0.926819
38731		5.653068	1.280093	7.822390	0.004961	-0.002862	-0.006244	-0.643555	-0.210693	-0.283691	-0.206031	-0.314060	-0.001646	-0.926777
38732		5.645528	1.290071	7.837787	0.006754	-0.002816	-0.005948	-0.641602	-0.214111	-0.278320	-0.206000	-0.314048	-0.001707	-0.926787
38733		5.628487	1.310696	7.819454	0.006849	-0.002458	-0.006958	-0.642090	-0.218750	-0.283691	-0.206029	-0.314055	-0.001762	-0.926779
38734		5.651421	1.306636	7.833338	0.005403	-0.001083	-0.005729	-0.644043	-0.220459	-0.280762	-0.206123	-0.314025	-0.001775	-0.926768
38735		5.636606	1.288426	7.847764	0.007720	-0.001371	-0.008033	-0.638916	-0.217773	-0.281738	-0.206248	-0.314020	-0.001821	-0.926742
38736		5.638399	1.298011	7.820935	0.005844	0.000698	-0.005214	-0.643799	-0.210449	-0.283936	-0.206321	-0.313973	-0.001846	-0.926741
38737		5.649462	1.296980	7.828008	0.006153	0.000708	-0.007019	-0.645508	-0.208984	-0.273926	-0.206293	-0.313919	-0.001917	-0.926765
38738		5.628915	1.306789	7.849895	0.008283	-0.000297	-0.007304	-0.641846	-0.213623	-0.281494	-0.206222	-0.313922	-0.002027	-0.926780
38739		5.627988	1.324071	7.817560	0.004839	-0.003402	-0.007509	-0.639648	-0.211426	-0.282227	-0.206254	-0.313922	-0.002060	-0.926773
38740		5.636552	1.299406	7.845992	0.006351	-0.004428	-0.004184	-0.645508	-0.217529	-0.276367	-0.206217	-0.313930	-0.002102	-0.926778
38741		5.631838	1.320195	7.821595	0.005625	-0.000196	-0.005471	-0.643066	-0.215576	-0.277588	-0.206257	-0.313923	-0.002138	-0.926772
38742		5.645331	1.307560	7.847011	0.004536	-0.002175	-0.004652	-0.636475	-0.215088	-0.286377	-0.206272	-0.313926	-0.002157	-0.926767
38743		5.650366	1.309000	7.825354	0.007326	-0.000507	-0.004166	-0.639404	-0.221680	-0.286377	-0.206300	-0.313874	-0.002198	-0.926779
38744		5.634982	1.318139	7.825840	0.007882	-0.000669	-0.004490	-0.637939	-0.214355	-0.279541	-0.206413	-0.313836	-0.002221	-0.926766
38745		5.633247	1.312475	7.852005	0.004817	-0.002172	-0.000893	-0.633057	-0.212646	-0.280029	-0.206383	-0.313824	-0.002228	-0.926777
38746		5.628986	1.305046	7.841814	0.004668	-0.000404	-0.002333	-0.636963	-0.214355	-0.285889	-0.206362	-0.313783	-0.002246	-0.926796
38747		5.620774	1.301843	7.839572	0.005000	-0.002697	-0.003965	-0.639404	-0.219971	-0.280762	-0.206380	-0.313753	-0.002258	-0.926802
38748		5.640001	1.319685	7.816152	0.005495	-0.003039	-0.001002	-0.640625	-0.209229	-0.278076	-0.206428	-0.313756	-0.002247	-0.926790
38749		5.615705	1.319323	7.827938	0.002593	-0.001524	0.000402	-0.633545	-0.223633	-0.283447	-0.206305	-0.313737	-0.002252	-0.926824
38750		5.603942	1.319087	7.833568	0.002181	-0.004370	0.001114	-0.641602	-0.209473	-0.285645	-0.206419	-0.313733	-0.002166	-0.926800
38751		5.633870	1.298392	7.857595	0.004182	-0.007150	-0.001489	-0.645508	-0.218262	-0.279541	-0.206324	-0.313756	-0.002174	-0.926813
38752		5.630073	1.318171	7.832661	0.003630	-0.005748	-0.000114	-0.637695	-0.216797	-0.278076	-0.206323	-0.313797	-0.002146	-0.926799
38753		5.626853	1.310065	7.821839	0.001864	-0.006859	0.000817	-0.647949	-0.219482	-0.278809	-0.206322	-0.313840	-0.002090	-0.926785
38754		5.640416	1.310916	7.814801	0.002304	-0.005076	0.001329	-0.635254	-0.217285	-0.282959	-0.206320	-0.313877	-0.002040	-0.926774
38755		5.622809	1.294723	7.836822	0.002084	-0.005968	0.001073	-0.638184	-0.223145	-0.275146	-0.206338	-0.313889	-0.001978	-0.926766
38756		5.644862	1.300555	7.831518	0.004182	-0.007153	-0.001489	-0.647461	-0.222168	-0.280029	-0.206443	-0.313958	-0.001933	-0.926719
38757		5.622628	1.304251	7.829180	0.005753	-0.009238	-0.002502	-0.645752	-0.211182	-0.289062	-0.206518	-0.314047	-0.001912	-0.926672
