// Start Time: Unknown
// Update Rate: 40.0Hz
// Filter Profile: human (46.1)
// Firmware Version: 4.6.0
PacketCounter	SampleTimeFine	Acc_X	Acc_Y	Acc_Z	Gyr_X	Gyr_Y	Gyr_Z	Mag_X	Mag_Y	Mag_Z	Quat_q0	Quat_q1	Quat_q2	Quat_q3
37857		5.531723	-0.440722	7.978901	-0.002878	-0.009681	0.002115	-0.660645	-0.410645	-0.097412	-0.340339	-0.270112	0.128533	-0.891453
37858		5.548161	-0.452049	7.989825	-0.001761	-0.005499	0.003930	-0.668213	-0.415039	-0.097168	-0.340293	-0.270159	0.128589	-0.891448
37859		5.539037	-0.455526	7.975756	-0.002363	-0.005976	0.004741	-0.668457	-0.416504	-0.095459	-0.340238	-0.270210	0.128657	-0.891444
37860		5.523028	-0.464396	7.989574	-0.002265	-0.006541	0.004952	-0.668701	-0.410156	-0.086426	-0.340179	-0.270265	0.128727	-0.891439
37861		5.535295	-0.467818	7.980642	-0.001414	-0.006874	0.001804	-0.670166	-0.416504	-0.094238	-0.340152	-0.270331	0.128780	-0.891422
37862		5.539966	-0.450956	7.966714	0.000542	-0.006891	0.002550	-0.671875	-0.413818	-0.100830	-0.340110	-0.270403	0.128816	-0.891411
37863		5.543477	-0.453334	7.993229	-0.002115	-0.006786	0.002405	-0.666504	-0.410645	-0.092285	-0.340077	-0.270464	0.128882	-0.891395
37864		5.534515	-0.456399	7.979071	-0.000258	-0.006239	0.002939	-0.668457	-0.417480	-0.098145	-0.340034	-0.270525	0.128927	-0.891387
37865		5.531048	-0.444157	7.979417	-0.000885	-0.006876	0.005129	-0.663574	-0.416504	-0.094727	-0.339966	-0.270584	0.128990	-0.891386
37866		5.540141	-0.464959	7.983331	-0.003197	-0.008145	0.002860	-0.669189	-0.421631	-0.098633	-0.339930	-0.270651	0.129075	-0.891367
37867		5.539800	-0.459402	7.989782	0.001268	-0.006819	0.000568	-0.669434	-0.407959	-0.095703	-0.339906	-0.270721	0.129100	-0.891351
37868		5.535339	-0.445613	7.976360	-0.000712	-0.006961	0.001203	-0.668213	-0.420410	-0.092285	-0.339877	-0.270782	0.129151	-0.891336
37869		5.542274	-0.430703	7.989850	-0.000699	-0.007483	0.003377	-0.680176	-0.413086	-0.098877	-0.339829	-0.270846	0.129207	-0.891327
37870		5.537788	-0.471048	7.993518	-0.002716	-0.007263	0.003217	-0.664062	-0.414062	-0.094971	-0.339783	-0.270891	0.129282	-0.891320
37871		5.557235	-0.468948	7.956418	0.000901	-0.008788	0.002596	-0.670898	-0.411621	-0.100586	-0.339738	-0.270971	0.129320	-0.891307
37872		5.541582	-0.447510	7.971918	0.000506	-0.009713	0.000276	-0.663574	-0.419434	-0.085938	-0.339711	-0.271057	0.129368	-0.891285
37873		5.553358	-0.445396	7.984068	-0.002310	-0.005656	0.001983	-0.665771	-0.420654	-0.094482	-0.339693	-0.271110	0.129422	-0.891267
37874		5.528653	-0.462457	7.977402	-0.002074	-0.003964	0.004676	-0.671143	-0.412109	-0.097412	-0.339654	-0.271124	0.129476	-0.891270
37875		5.537602	-0.458667	7.962488	0.000371	-0.005602	0.000746	-0.668701	-0.419434	-0.091553	-0.339625	-0.271157	0.129505	-0.891267
37876		5.539560	-0.459714	7.975631	-0.000146	-0.002938	0.001071	-0.667236	-0.422119	-0.098389	-0.339616	-0.271176	0.129520	-0.891263
37877		5.549418	-0.456739	7.974598	-0.001251	-0.004457	0.002906	-0.662598	-0.412354	-0.103271	-0.339606	-0.271181	0.129562	-0.891259
37878		5.535991	-0.471851	7.994989	0.000668	-0.004113	0.002854	-0.669189	-0.424805	-0.098633	-0.339576	-0.271173	0.129589	-0.891269
37879		5.537189	-0.448060	7.975202	-0.000611	-0.004342	0.002889	-0.668457	-0.408447	-0.097900	-0.339579	-0.271172	0.129623	-0.891263
37880		5.541067	-0.455378	7.980743	-0.000330	-0.005514	0.001347	-0.671387	-0.408936	-0.100342	-0.339524	-0.271188	0.129660	-0.891274
37881		5.535943	-0.441930	7.967766	-0.001066	-0.001881	0.002630	-0.672607	-0.412354	-0.096436	-0.339463	-0.271142	0.129698	-0.891305
37882		5.548310	-0.445935	7.973242	-0.000465	-0.001404	0.001818	-0.657227	-0.409668	-0.099854	-0.339414	-0.271116	0.129715	-0.891329
37883		5.551595	-0.453430	7.979184	-0.000990	-0.002605	0.004219	-0.675049	-0.416992	-0.089600	-0.339394	-0.271090	0.129745	-0.891341
37884		5.542678	-0.457627	7.979496	-0.001445	-0.000144	0.003961	-0.665771	-0.419922	-0.104736	-0.339325	-0.271090	0.129760	-0.891365
37885		5.536451	-0.439437	7.988046	-0.000869	-0.003010	0.003051	-0.666260	-0.409180	-0.104492	-0.339371	-0.271031	0.129791	-0.891361
37886		5.534992	-0.438575	7.959972	-0.003793	-0.005437	0.005149	-0.665039	-0.414795	-0.092285	-0.339312	-0.270977	0.129880	-0.891386
37887		5.529322	-0.474237	7.985191	-0.001272	-0.004617	0.004284	-0.661133	-0.412598	-0.090820	-0.339271	-0.271027	0.129902	-0.891384
37888		5.531597	-0.451738	7.979161	-0.001447	-0.003327	0.002484	-0.665283	-0.417236	-0.095215	-0.339248	-0.271075	0.129911	-0.891377
37889		5.533508	-0.453203	7.992323	0.000128	-0.004793	0.003081	-0.665039	-0.419189	-0.094238	-0.339254	-0.271105	0.129916	-0.891364
37890		5.528851	-0.469310	7.977151	-0.002551	-0.004845	0.004319	-0.669678	-0.406494	-0.104736	-0.339278	-0.271132	0.129949	-0.891342
37891		5.546368	-0.457693	7.982850	-0.003031	-0.005727	0.003963	-0.670410	-0.421143	-0.098633	-0.339174	-0.271047	0.130041	-0.891394
37892		5.539948	-0.467734	7.975169	0.000051	-0.004068	0.001491	-0.662109	-0.415039	-0.095703	-0.339242	-0.271037	0.130046	-0.891371
37893		5.523353	-0.446578	7.991410	-0.000610	-0.004342	0.002887	-0.663574	-0.415527	-0.094238	-0.339261	-0.271056	0.130057	-0.891356
37894		5.542966	-0.469650	7.987540	-0.000854	-0.006716	0.003747	-0.670166	-0.417969	-0.093994	-0.339259	-0.271113	0.130079	-0.891337
37895		5.530429	-0.460859	7.988402	-0.001494	-0.006830	0.003764	-0.672363	-0.420898	-0.094482	-0.339246	-0.271170	0.130113	-0.891319
37896		5.538642	-0.456237	7.959436	-0.000734	-0.007121	0.002578	-0.674316	-0.413574	-0.101318	-0.339278	-0.271231	0.130136	-0.891285
37897		5.542963	-0.463567	7.964659	-0.000034	-0.007209	0.001976	-0.669434	-0.418945	-0.098145	-0.339223	-0.271203	0.130185	-0.891307
37898		5.546768	-0.441506	7.972133	0.000730	-0.004316	0.002267	-0.658936	-0.414795	-0.100586	-0.339277	-0.271193	0.130188	-0.891289
37899		5.544299	-0.458928	7.984514	0.000731	-0.004316	0.002267	-0.665283	-0.417969	-0.101807	-0.339362	-0.271146	0.130186	-0.891271
37900		5.535931	-0.462466	7.984497	0.000632	-0.003751	0.002056	-0.674316	-0.423096	-0.094727	-0.339467	-0.271076	0.130191	-0.891252
37901		5.545805	-0.459250	7.983450	0.000632	-0.003751	0.002056	-0.670654	-0.415283	-0.093262	-0.339558	-0.271112	0.130185	-0.891207
37902		5.545375	-0.458457	7.969208	0.000632	-0.003751	0.002056	-0.670654	-0.415283	-0.105957	-0.339512	-0.271165	0.130183	-0.891209
37903		5.550711	-0.471407	7.967466	0.001812	-0.002958	0.001810	-0.666016	-0.416748	-0.096680	-0.339542	-0.271018	0.130199	-0.891240
37904		5.533945	-0.449933	7.983890	-0.000725	-0.003255	0.000504	-0.666748	-0.411865	-0.099609	-0.339609	-0.271016	0.130202	-0.891215
37905		5.545512	-0.452858	7.975372	-0.000746	-0.003415	0.001882	-0.656982	-0.417725	-0.094482	-0.339562	-0.270960	0.130230	-0.891246
37906		5.550903	-0.466310	7.973561	-0.001346	-0.003891	0.002695	-0.664551	-0.411865	-0.091553	-0.339708	-0.270997	0.130218	-0.891180
37907		5.527367	-0.459853	7.961739	-0.001603	-0.002559	0.002858	-0.665771	-0.409180	-0.097656	-0.339614	-0.271064	0.130225	-0.891195
37908		5.555904	-0.446413	7.994679	-0.000885	-0.003170	0.004429	-0.671143	-0.413330	-0.095947	-0.339467	-0.271025	0.130262	-0.891257
37909		5.538790	-0.458945	7.974069	-0.001504	-0.003124	0.003069	-0.665771	-0.421387	-0.090332	-0.339374	-0.271024	0.130298	-0.891288
37910		5.548202	-0.456402	7.973299	-0.001498	0.000059	0.004546	-0.667969	-0.412109	-0.104004	-0.339492	-0.271095	0.130268	-0.891226
37911		5.548261	-0.457229	7.973210	-0.000601	-0.001159	0.004364	-0.660889	-0.411377	-0.092773	-0.339457	-0.270918	0.130319	-0.891286
37912		5.540364	-0.462254	7.987376	-0.000120	-0.000278	0.004720	-0.673096	-0.416504	-0.095459	-0.339390	-0.270945	0.130299	-0.891305
37913		5.528400	-0.459058	7.981604	0.000817	-0.001176	0.001781	-0.670410	-0.416260	-0.104492	-0.339361	-0.270952	0.130290	-0.891316
37914		5.534795	-0.449279	7.974702	-0.001979	-0.000822	0.004190	-0.669678	-0.408936	-0.099121	-0.339426	-0.270758	0.130353	-0.891341
37915		5.507506	-0.459903	7.976182	0.000817	-0.001176	0.001780	-0.669678	-0.408447	-0.095215	-0.339266	-0.270686	0.130371	-0.891421
37916		5.545754	-0.447794	7.987391	-0.000727	-0.003937	0.004054	-0.661865	-0.414307	-0.089844	-0.339034	-0.270713	0.130408	-0.891496
37917		5.537475	-0.452004	7.987279	-0.001808	-0.005294	0.004511	-0.664551	-0.411133	-0.091553	-0.339028	-0.270860	0.130401	-0.891454
37918		5.538968	-0.458075	7.965350	-0.002645	-0.004278	0.004109	-0.661865	-0.412842	-0.103516	-0.338921	-0.270953	0.130423	-0.891463
37919		5.539067	-0.454245	7.986049	-0.003541	-0.003060	0.004292	-0.667236	-0.412354	-0.096680	-0.339056	-0.270770	0.130507	-0.891455
37920		5.530106	-0.459069	7.986376	-0.004271	0.000575	0.005578	-0.675293	-0.410156	-0.099121	-0.338996	-0.270699	0.130560	-0.891492
37921		5.520921	-0.463727	7.986868	-0.001978	-0.000822	0.004190	-0.671387	-0.413086	-0.094238	-0.338777	-0.270613	0.130624	-0.891592
37922		5.525033	-0.472586	8.006734	-0.001496	0.000059	0.004546	-0.664062	-0.406006	-0.097168	-0.338652	-0.270624	0.130634	-0.891634
37923		5.523917	-0.472320	7.992929	-0.001200	-0.000952	0.001625	-0.652832	-0.415283	-0.099365	-0.338519	-0.270568	0.130662	-0.891698
37924		5.530593	-0.462404	7.985847	-0.000687	-0.003617	0.001297	-0.670898	-0.417480	-0.098145	-0.338921	-0.270488	0.130663	-0.891570
37925		5.522058	-0.465702	7.985966	0.002471	-0.002687	0.000410	-0.669189	-0.412109	-0.098389	-0.339017	-0.270475	0.130635	-0.891541
37926		5.540787	-0.458718	7.984600	0.000936	-0.001581	0.000611	-0.672363	-0.414795	-0.092285	-0.338976	-0.270429	0.130634	-0.891571
37927		5.542541	-0.464480	7.977092	0.002342	0.001424	0.000885	-0.659424	-0.409180	-0.095703	-0.338891	-0.270500	0.130568	-0.891591
37928		5.506742	-0.444574	8.016039	-0.000332	-0.005514	0.001343	-0.675537	-0.412598	-0.104248	-0.338891	-0.270532	0.130573	-0.891581
37929		5.488314	-0.535960	7.982395	0.006340	-0.011073	-0.008271	-0.665527	-0.415283	-0.097168	-0.338900	-0.270504	0.130570	-0.891586
37930		5.549817	-0.414113	7.963509	0.007943	-0.008515	-0.011130	-0.658691	-0.418701	-0.093750	-0.339110	-0.270605	0.130459	-0.891492
37931		5.558116	-0.426780	7.988891	0.003426	-0.003425	-0.003908	-0.669922	-0.417236	-0.103271	-0.339446	-0.270686	0.130360	-0.891354
37932		5.561148	-0.404895	7.996929	-0.004307	0.000255	0.008337	-0.662354	-0.417969	-0.096680	-0.339536	-0.270472	0.130457	-0.891370
37933		5.573791	-0.421733	7.960329	-0.011224	0.004125	0.015259	-0.668457	-0.411133	-0.095947	-0.339653	-0.270320	0.130578	-0.891354
37934		5.538992	-0.413789	8.006592	-0.013741	0.009514	0.020462	-0.668213	-0.416504	-0.094238	-0.339386	-0.270115	0.130744	-0.891494
37935		5.504142	-0.503162	7.990687	-0.014161	0.008431	0.019520	-0.674805	-0.407227	-0.094238	-0.339317	-0.269971	0.130891	-0.891542
37936		5.471692	-0.509857	7.987306	-0.003557	0.010557	0.007241	-0.662598	-0.409180	-0.096680	-0.338945	-0.269873	0.130908	-0.891711
37937		5.517901	-0.466805	8.015292	0.001922	0.006543	0.004282	-0.666992	-0.416504	-0.102539	-0.338880	-0.269780	0.130847	-0.891773
37938		5.518283	-0.444201	8.010661	-0.003077	0.005234	0.003259	-0.668457	-0.412842	-0.100342	-0.339085	-0.269567	0.130869	-0.891756
37939		5.487298	-0.477930	8.004412	-0.004485	0.001546	0.006535	-0.664307	-0.419434	-0.098145	-0.339072	-0.269438	0.130931	-0.891791
37940		5.512828	-0.463795	8.010348	-0.004829	-0.000262	0.007182	-0.666260	-0.410156	-0.099609	-0.339315	-0.269380	0.130967	-0.891710
37941		5.517789	-0.483708	7.987846	-0.004601	0.001950	0.007703	-0.661133	-0.410156	-0.097412	-0.339216	-0.269262	0.131025	-0.891775
37942		5.495460	-0.450901	8.006243	-0.002467	0.001319	0.006690	-0.665283	-0.416992	-0.100342	-0.339180	-0.269207	0.131032	-0.891804
37943		5.490676	-0.468697	8.005555	-0.004268	0.000577	0.005576	-0.656738	-0.411865	-0.094238	-0.339375	-0.269101	0.131073	-0.891756
37944		5.509301	-0.468826	7.983315	-0.004502	0.001385	0.007912	-0.665039	-0.408447	-0.104492	-0.339420	-0.269106	0.131072	-0.891738
37945		5.467274	-0.495201	8.006008	-0.002329	0.000391	0.007693	-0.673340	-0.408691	-0.105713	-0.339320	-0.268914	0.131133	-0.891825
37946		5.503961	-0.483213	8.003759	-0.001898	-0.001548	0.005775	-0.665771	-0.413818	-0.103760	-0.339139	-0.268738	0.131217	-0.891934
37947		5.499502	-0.471069	8.004914	-0.000620	-0.000637	0.002190	-0.660156	-0.415283	-0.100586	-0.339291	-0.268603	0.131235	-0.891915
37948		5.496943	-0.464436	7.998461	0.000470	-0.002988	0.002426	-0.668945	-0.413086	-0.103271	-0.339535	-0.268564	0.131218	-0.891836
37949		5.503434	-0.478922	8.010352	-0.001951	-0.004366	0.003501	-0.676514	-0.421143	-0.101074	-0.339573	-0.268484	0.131274	-0.891837
37950		5.499541	-0.466905	8.011116	-0.002786	-0.003348	0.003100	-0.678711	-0.413330	-0.102783	-0.339792	-0.268451	0.131335	-0.891755
37951		5.494490	-0.483162	7.996098	-0.002107	-0.003599	0.003876	-0.663086	-0.415771	-0.103027	-0.339713	-0.268384	0.131419	-0.891793
37952		5.508828	-0.464221	7.995871	-0.000170	-0.003100	0.002443	-0.665039	-0.416016	-0.100098	-0.339921	-0.268307	0.131420	-0.891736
37953		5.511963	-0.472203	8.001846	-0.004846	0.000264	0.005010	-0.663818	-0.416504	-0.097412	-0.340076	-0.268233	0.131460	-0.891694
37954		5.497419	-0.488413	8.022941	-0.003200	0.001772	0.006499	-0.664307	-0.413330	-0.097900	-0.340217	-0.268206	0.131463	-0.891648
37955		5.503448	-0.479285	8.016300	-0.002733	0.000156	0.001825	-0.673096	-0.418213	-0.102539	-0.340281	-0.268196	0.131457	-0.891627
37956		5.512743	-0.452962	7.996805	-0.004713	0.003041	0.005322	-0.669922	-0.412598	-0.091309	-0.340450	-0.268051	0.131524	-0.891596
37957		5.475390	-0.497224	7.997246	-0.004248	0.003759	0.007057	-0.666748	-0.420410	-0.097412	-0.340342	-0.268127	0.131533	-0.891613
37958		5.428528	-0.510126	8.021415	-0.001473	0.000220	0.003166	-0.665039	-0.411377	-0.100098	-0.340618	-0.268135	0.131520	-0.891508
37959		5.505873	-0.466783	8.003746	-0.000147	-0.006646	0.001755	-0.669189	-0.410645	-0.101074	-0.340583	-0.268171	0.131522	-0.891510
37960		5.447804	-0.502947	8.005158	0.001560	-0.008359	-0.000200	-0.669189	-0.407227	-0.100342	-0.340515	-0.268217	0.131529	-0.891521
37961		5.452528	-0.504112	8.031038	0.005542	-0.015341	-0.001476	-0.668945	-0.413574	-0.106934	-0.340308	-0.268372	0.131517	-0.891555
37962		5.518772	-0.420185	8.015523	0.004092	-0.017979	-0.002546	-0.670654	-0.416748	-0.103027	-0.340399	-0.268417	0.131552	-0.891501
37963		5.522402	-0.454197	7.990068	-0.001764	-0.012384	0.003128	-0.671631	-0.416992	-0.094482	-0.340523	-0.268442	0.131636	-0.891434
37964		5.505619	-0.486081	8.008847	-0.003222	-0.008296	0.004228	-0.672363	-0.409180	-0.094727	-0.340593	-0.268579	0.131695	-0.891357
37965		5.501401	-0.473136	7.995315	-0.001925	-0.007910	0.002813	-0.664062	-0.408936	-0.103027	-0.340406	-0.268709	0.131744	-0.891382
37966		5.508534	-0.458443	8.008836	-0.000881	-0.006192	0.001563	-0.671387	-0.413086	-0.106201	-0.340334	-0.268662	0.131763	-0.891421
37967		5.511189	-0.465270	8.000604	-0.003440	-0.003621	0.004498	-0.667236	-0.415527	-0.099365	-0.340362	-0.268513	0.131852	-0.891442
37968		5.491730	-0.496317	8.006681	-0.002356	-0.002266	0.004042	-0.666748	-0.414551	-0.103760	-0.340454	-0.268490	0.131873	-0.891411
37969		5.500982	-0.464638	8.008115	-0.000887	0.000534	0.003733	-0.667480	-0.415771	-0.098633	-0.340548	-0.268359	0.131881	-0.891413
37970		5.488582	-0.485969	8.021466	-0.001659	-0.002356	0.003439	-0.670410	-0.417480	-0.099609	-0.340644	-0.268358	0.131890	-0.891376
37971		5.506186	-0.479371	8.006253	-0.002955	-0.002741	0.004854	-0.674561	-0.421875	-0.097168	-0.340774	-0.268336	0.131937	-0.891326
37972		5.495811	-0.477585	8.013950	-0.000905	-0.002647	0.002251	-0.664551	-0.414307	-0.098633	-0.341043	-0.268370	0.131963	-0.891209
37973		5.467240	-0.482005	8.022691	-0.000651	-0.003980	0.002085	-0.665527	-0.420654	-0.103516	-0.341096	-0.268393	0.131948	-0.891183
37974		5.501950	-0.462106	8.013614	-0.000341	-0.005514	0.001334	-0.669922	-0.406494	-0.104980	-0.341381	-0.268348	0.131952	-0.891088
37975		5.496068	-0.476799	7.984611	-0.001677	-0.005536	0.001956	-0.669434	-0.418457	-0.096680	-0.341177	-0.268269	0.132003	-0.891182
37976		5.488661	-0.476789	8.019383	-0.001734	-0.005335	0.002540	-0.665771	-0.417480	-0.101562	-0.341342	-0.268337	0.132027	-0.891095
37977		5.494531	-0.490345	8.017127	-0.000645	-0.007686	0.002773	-0.675293	-0.408691	-0.098389	-0.341486	-0.268349	0.132045	-0.891033
37978		5.519665	-0.469025	8.029777	-0.001543	-0.002759	0.002270	-0.675537	-0.418457	-0.102051	-0.341343	-0.268350	0.132098	-0.891080
37979		5.495148	-0.461110	8.004219	0.000340	-0.005766	0.002108	-0.662842	-0.410400	-0.105469	-0.341524	-0.268331	0.132151	-0.891008
37980		5.474624	-0.485403	8.017449	-0.000898	-0.006354	0.002939	-0.663086	-0.417969	-0.110352	-0.341438	-0.268263	0.132156	-0.891061
37981		5.499438	-0.467974	7.994846	0.000093	-0.008140	0.002962	-0.665283	-0.418945	-0.102539	-0.341619	-0.268136	0.132176	-0.891027
37982		5.525208	-0.480492	7.984016	0.001268	-0.003645	0.002027	-0.665283	-0.410889	-0.097900	-0.341815	-0.268100	0.132152	-0.890966
37983		5.511677	-0.466046	8.006699	-0.000691	-0.003616	0.001291	-0.662354	-0.415283	-0.099121	-0.341739	-0.268137	0.132133	-0.890987
37984		5.502977	-0.464782	8.027856	-0.000938	-0.005990	0.002146	-0.666016	-0.421143	-0.098145	-0.341801	-0.268179	0.132119	-0.890953
37985		5.493953	-0.472726	7.992796	-0.002140	-0.003234	0.003083	-0.666504	-0.410645	-0.097412	-0.342046	-0.268195	0.132130	-0.890852
37986		5.497085	-0.475819	8.019695	-0.003337	-0.004185	0.004707	-0.674072	-0.411377	-0.097412	-0.341924	-0.268227	0.132161	-0.890885
37987		5.483986	-0.496180	8.018986	-0.000206	-0.002737	0.001647	-0.670166	-0.407959	-0.093262	-0.341869	-0.268253	0.132186	-0.890895
37988		5.497038	-0.475807	8.005111	0.000433	-0.002626	0.001628	-0.659668	-0.413818	-0.104004	-0.341683	-0.268351	0.132167	-0.890939
37989		5.499292	-0.452947	7.999300	-0.001444	-0.003324	0.002479	-0.660156	-0.413818	-0.097900	-0.341721	-0.268276	0.132147	-0.890950
37990		5.498278	-0.476694	8.004207	-0.000067	-0.003667	0.002649	-0.674561	-0.417480	-0.102051	-0.341726	-0.268312	0.132100	-0.890944
37991		5.486645	-0.468332	8.019228	-0.000964	-0.005464	-0.000025	-0.661621	-0.409912	-0.097900	-0.341885	-0.268292	0.132151	-0.890882
37992		5.477183	-0.470933	8.005428	-0.000649	-0.003980	0.002084	-0.673828	-0.410889	-0.099609	-0.341767	-0.268329	0.132115	-0.890921
37993		5.515007	-0.458178	8.002309	-0.000643	-0.007686	0.002771	-0.669434	-0.408691	-0.099854	-0.341679	-0.268369	0.132169	-0.890935
37994		5.494404	-0.482851	8.015598	-0.002737	-0.003709	0.003895	-0.666016	-0.405273	-0.086670	-0.341532	-0.268351	0.132211	-0.890990
37995		5.472601	-0.476801	8.017336	0.002099	-0.007683	-0.000438	-0.662354	-0.411865	-0.089844	-0.341232	-0.268620	0.132134	-0.891035
37996		5.503304	-0.472816	8.007017	-0.000003	-0.007575	0.002751	-0.671387	-0.417236	-0.104492	-0.341126	-0.268819	0.132084	-0.891024
37997		5.486715	-0.479549	8.006972	0.001838	-0.010219	0.001792	-0.677734	-0.420898	-0.104248	-0.341252	-0.268815	0.132119	-0.890972
37998		5.500710	-0.483245	8.011249	-0.000318	-0.009058	0.000641	-0.667236	-0.407715	-0.097900	-0.341478	-0.268795	0.132194	-0.890880
37999		5.482656	-0.454946	8.020764	-0.001400	-0.010412	0.001098	-0.666260	-0.416992	-0.097656	-0.341325	-0.268883	0.132224	-0.890908
38000		5.529367	-0.467196	8.000465	-0.001996	-0.010888	0.001910	-0.668213	-0.412109	-0.097412	-0.341414	-0.268978	0.132254	-0.890840
38001		5.491569	-0.445229	7.997522	-0.003422	-0.007325	0.005187	-0.661621	-0.419922	-0.098389	-0.341344	-0.269020	0.132308	-0.890846
38002		5.500211	-0.490518	8.020281	-0.001722	-0.009040	0.003226	-0.665039	-0.409668	-0.092041	-0.341508	-0.269083	0.132312	-0.890764
38003		5.488168	-0.452486	8.023203	-0.002557	-0.008020	0.002829	-0.666748	-0.411621	-0.099121	-0.341361	-0.269222	0.132317	-0.890777
38004		5.494947	-0.471215	7.999281	-0.001468	-0.010373	0.003058	-0.667480	-0.407471	-0.103027	-0.341307	-0.269278	0.132356	-0.890775
38005		5.519487	-0.473347	8.016535	-0.002149	-0.010120	0.002285	-0.668701	-0.416260	-0.102051	-0.341189	-0.269266	0.132420	-0.890815
38006		5.482112	-0.485161	7.990207	-0.001123	-0.008565	0.002412	-0.665527	-0.414795	-0.097900	-0.341286	-0.269260	0.132463	-0.890773
38007		5.508350	-0.463668	8.002079	-0.000450	-0.011835	0.000322	-0.661865	-0.406006	-0.104980	-0.341334	-0.269361	0.132475	-0.890722
38008		5.519472	-0.455911	8.021106	-0.001908	-0.011615	0.003494	-0.668457	-0.415283	-0.106934	-0.341192	-0.269334	0.132532	-0.890776
38009		5.514144	-0.470932	7.991598	-0.001430	-0.007030	0.003164	-0.667480	-0.416016	-0.099121	-0.341305	-0.269233	0.132596	-0.890754
38010		5.495576	-0.477042	7.978346	0.000622	-0.003920	0.003418	-0.664062	-0.410156	-0.097412	-0.341367	-0.269226	0.132586	-0.890734
38011		5.496077	-0.467288	8.020019	0.000908	-0.008634	0.001180	-0.677490	-0.416748	-0.090332	-0.341287	-0.269301	0.132565	-0.890745
38012		5.513814	-0.459152	7.989993	-0.002644	-0.011160	0.003306	-0.662598	-0.415283	-0.094971	-0.341266	-0.269489	0.132623	-0.890688
38013		5.518436	-0.467211	7.994921	-0.002916	-0.006283	0.004167	-0.670898	-0.416992	-0.104492	-0.341287	-0.269550	0.132628	-0.890660
38014		5.500828	-0.499146	8.014406	-0.002375	-0.005607	0.003938	-0.674561	-0.417236	-0.095947	-0.341406	-0.269462	0.132696	-0.890631
38015		5.492974	-0.473580	8.016299	0.001989	-0.007281	0.000721	-0.668213	-0.414062	-0.100342	-0.341482	-0.269542	0.132692	-0.890578
38016		5.539357	-0.460923	7.977220	0.001339	-0.007554	0.002119	-0.668701	-0.416504	-0.099854	-0.341505	-0.269556	0.132693	-0.890565
38017		5.518754	-0.455530	7.992870	0.001133	-0.002717	0.001019	-0.672363	-0.419922	-0.098633	-0.341604	-0.269524	0.132671	-0.890540
38018		5.514346	-0.467286	8.012963	-0.001557	-0.003082	0.005026	-0.658691	-0.415283	-0.096680	-0.341739	-0.269495	0.132706	-0.890492
38019		5.515255	-0.472928	7.991262	-0.000157	-0.003101	0.002438	-0.664062	-0.414062	-0.104492	-0.341767	-0.269513	0.132647	-0.890485
38020		5.507924	-0.477663	8.005196	-0.000895	-0.002647	0.002251	-0.662109	-0.409668	-0.102051	-0.341820	-0.269407	0.132647	-0.890496
38021		5.508527	-0.478096	8.004755	-0.000058	-0.003667	0.002645	-0.669922	-0.420166	-0.091064	-0.341740	-0.269353	0.132625	-0.890547
38022		5.499938	-0.481478	8.004972	0.001089	-0.002353	0.000226	-0.660889	-0.412109	-0.094238	-0.341872	-0.269445	0.132573	-0.890476
38023		5.492913	-0.461331	7.999907	0.002985	-0.002345	0.002917	-0.664551	-0.409912	-0.100098	-0.341791	-0.269497	0.132480	-0.890505
38024		5.496911	-0.468390	8.005326	-0.000426	-0.008654	0.001805	-0.671875	-0.416992	-0.097900	-0.341710	-0.269521	0.132486	-0.890528
38025		5.509499	-0.471193	7.995907	0.001062	-0.009401	0.000801	-0.667969	-0.408203	-0.100586	-0.341785	-0.269590	0.132498	-0.890476
38026		5.521450	-0.463985	8.029022	-0.000414	-0.008492	0.000428	-0.672607	-0.414551	-0.101562	-0.341683	-0.269603	0.132514	-0.890509
38027		5.529768	-0.458877	7.999740	-0.000954	-0.009168	0.000657	-0.670166	-0.411865	-0.098633	-0.341736	-0.269607	0.132564	-0.890480
38028		5.528143	-0.481683	7.990433	-0.001831	-0.004929	0.003710	-0.662354	-0.420898	-0.108887	-0.341683	-0.269595	0.132594	-0.890500
38029		5.510807	-0.459673	7.993183	0.000142	-0.004798	0.003061	-0.675293	-0.412842	-0.100830	-0.341922	-0.269462	0.132611	-0.890446
38030		5.516262	-0.467861	8.012206	0.000711	-0.007503	0.000761	-0.659912	-0.416504	-0.097412	-0.341927	-0.269464	0.132642	-0.890439
38031		5.514952	-0.466109	7.983855	0.000330	-0.006091	0.004853	-0.665283	-0.408203	-0.095215	-0.341951	-0.269499	0.132611	-0.890423
38032		5.514731	-0.460487	7.990429	0.000171	-0.008179	0.000990	-0.666504	-0.414062	-0.105957	-0.341801	-0.269586	0.132586	-0.890459
38033		5.509964	-0.471189	7.996183	-0.002107	-0.006776	0.002393	-0.666748	-0.413086	-0.093750	-0.341867	-0.269501	0.132637	-0.890451
38034		5.516035	-0.484587	7.993701	0.000271	-0.008745	0.001197	-0.665527	-0.412598	-0.102295	-0.341821	-0.269613	0.132617	-0.890438
38035		5.522232	-0.468642	7.993361	-0.000729	-0.007120	0.002557	-0.666260	-0.411377	-0.098633	-0.341821	-0.269586	0.132636	-0.890443
38036		5.491731	-0.465825	7.995611	0.000271	-0.008745	0.001197	-0.669189	-0.412598	-0.097168	-0.341772	-0.269631	0.132633	-0.890449
38037		5.525797	-0.464131	8.011952	-0.000052	-0.014096	0.001147	-0.662842	-0.412109	-0.096436	-0.341731	-0.269752	0.132661	-0.890424
38038		5.519457	-0.472630	7.989548	-0.001141	-0.011743	0.000923	-0.670410	-0.416016	-0.093262	-0.341694	-0.269852	0.132666	-0.890407
38039		5.502322	-0.478516	7.975365	-0.001374	-0.013953	0.000398	-0.674805	-0.418945	-0.100342	-0.341708	-0.270015	0.132695	-0.890348
38040		5.533906	-0.469774	7.985217	0.000499	-0.013257	-0.000461	-0.668457	-0.424316	-0.096924	-0.341843	-0.270084	0.132744	-0.890268
38041		5.535307	-0.463905	7.990696	-0.000875	-0.016781	0.001435	-0.670166	-0.408447	-0.090820	-0.342055	-0.270231	0.132798	-0.890134
38042		5.540209	-0.445978	7.961946	-0.002155	-0.013134	-0.000580	-0.666748	-0.408203	-0.093018	-0.341908	-0.270400	0.132819	-0.890136
38043		5.569585	-0.461046	7.977487	-0.003027	-0.008895	0.002476	-0.663574	-0.413574	-0.096924	-0.341749	-0.270485	0.132837	-0.890168
38044		5.541889	-0.465898	7.986017	-0.002361	-0.005605	0.003940	-0.666016	-0.416748	-0.095947	-0.341731	-0.270487	0.132848	-0.890173
38045		5.524691	-0.478013	7.965407	0.000058	-0.004070	0.001474	-0.664062	-0.418945	-0.099609	-0.341792	-0.270500	0.132823	-0.890150
38046		5.525389	-0.444134	7.988270	0.000051	-0.004233	0.002850	-0.671631	-0.421387	-0.100342	-0.341912	-0.270468	0.132814	-0.890114
38047		5.530521	-0.457565	7.986408	-0.000355	-0.002132	0.003398	-0.667725	-0.420410	-0.101318	-0.342078	-0.270398	0.132831	-0.890069
38048		5.506369	-0.474954	7.994244	-0.000940	-0.002445	0.002836	-0.664795	-0.417480	-0.099609	-0.342238	-0.270322	0.132844	-0.890029
38049		5.504197	-0.468467	7.987537	-0.000336	-0.005676	0.002703	-0.663086	-0.406738	-0.099365	-0.342314	-0.270307	0.132843	-0.890004
38050		5.538962	-0.448572	7.977983	0.000850	-0.004727	0.001073	-0.672607	-0.415771	-0.104492	-0.342159	-0.270291	0.132799	-0.890076
38051		5.525707	-0.439362	7.979744	-0.002723	-0.000000	0.003222	-0.670410	-0.417480	-0.096191	-0.342246	-0.270137	0.132847	-0.890082
38052		5.524214	-0.463596	7.984938	-0.001639	-0.002516	0.004820	-0.670898	-0.408691	-0.101318	-0.342289	-0.270117	0.132862	-0.890069
38053		5.527386	-0.471600	7.990865	-0.001405	-0.000306	0.005345	-0.675049	-0.412842	-0.100098	-0.342171	-0.270009	0.132876	-0.890145
38054		5.516802	-0.474816	7.977803	-0.001451	0.000059	0.004553	-0.666748	-0.416016	-0.094727	-0.342153	-0.269911	0.132901	-0.890178
38055		5.527353	-0.473558	7.990772	-0.001991	-0.000618	0.004783	-0.668945	-0.408691	-0.103760	-0.342158	-0.269892	0.132888	-0.890184
38056		5.515648	-0.470566	7.984976	-0.000635	-0.003979	0.002080	-0.676025	-0.406738	-0.096191	-0.342089	-0.269810	0.132899	-0.890233
38057		5.523785	-0.462037	7.991456	-0.002424	-0.001697	0.003844	-0.670898	-0.414307	-0.092529	-0.341927	-0.269775	0.132919	-0.890303
38058		5.520510	-0.479913	8.004368	0.001013	0.001228	0.002878	-0.665039	-0.417236	-0.090576	-0.341897	-0.269775	0.132858	-0.890324
38059		5.511599	-0.459556	7.985965	-0.002576	-0.000929	0.004221	-0.679199	-0.413330	-0.105713	-0.341899	-0.269810	0.132826	-0.890317
38060		5.531235	-0.455062	7.998323	-0.002335	0.001444	0.003370	-0.664795	-0.406738	-0.104492	-0.341961	-0.269631	0.132886	-0.890339
38061		5.494466	-0.473995	7.979878	-0.001549	0.000624	0.004346	-0.674316	-0.414062	-0.106201	-0.341852	-0.269488	0.132881	-0.890424
38062		5.506770	-0.478588	7.985163	-0.001533	-0.002919	0.003650	-0.658447	-0.416260	-0.105469	-0.341915	-0.269365	0.132935	-0.890429
38063		5.519903	-0.458727	7.971038	-0.001275	-0.004089	0.002102	-0.668213	-0.422119	-0.093750	-0.342017	-0.269284	0.132934	-0.890415
38064		5.515730	-0.465591	8.012193	-0.001123	-0.004856	0.001725	-0.656982	-0.418701	-0.096191	-0.342159	-0.269342	0.132922	-0.890345
38065		5.525917	-0.467890	7.989641	-0.000747	-0.003739	0.004626	-0.661621	-0.417725	-0.103516	-0.342204	-0.269365	0.132881	-0.890327
38066		5.540375	-0.448944	7.989262	0.000438	-0.002790	0.002996	-0.663574	-0.417236	-0.104492	-0.342300	-0.269296	0.132860	-0.890314
38067		5.531190	-0.453101	7.989894	-0.003869	0.002394	0.004963	-0.657715	-0.416016	-0.097168	-0.342393	-0.269137	0.132881	-0.890323
38068		5.518106	-0.474783	8.003877	-0.001359	0.003199	0.004080	-0.659912	-0.406982	-0.095215	-0.342409	-0.269070	0.132818	-0.890346
38069		5.511533	-0.461783	7.992024	-0.002690	0.003180	0.004710	-0.675293	-0.417480	-0.097412	-0.342218	-0.269015	0.132755	-0.890446
38070		5.498521	-0.483097	8.005967	0.000909	0.001630	0.004048	-0.663574	-0.413330	-0.101807	-0.342263	-0.268962	0.132729	-0.890448
38071		5.525689	-0.473840	8.004164	-0.001055	0.001664	0.003324	-0.671631	-0.414062	-0.101807	-0.342269	-0.268859	0.132699	-0.890482
38072		5.500926	-0.461952	8.014719	0.000323	0.001318	0.003486	-0.665039	-0.414062	-0.096191	-0.342284	-0.268762	0.132680	-0.890508
38073		5.504048	-0.474255	7.999563	0.000238	-0.001659	0.002582	-0.667236	-0.412842	-0.101562	-0.342262	-0.268768	0.132630	-0.890522
38074		5.518125	-0.455192	7.999472	-0.001238	-0.000747	0.002214	-0.660400	-0.419678	-0.100830	-0.342265	-0.268696	0.132616	-0.890545
38075		5.501454	-0.468325	7.993128	-0.001244	-0.000910	0.003590	-0.661377	-0.410889	-0.095703	-0.342383	-0.268641	0.132598	-0.890519
38076		5.501601	-0.464101	8.014131	-0.000894	-0.002809	0.003626	-0.661865	-0.413818	-0.093018	-0.342278	-0.268661	0.132549	-0.890560
38077		5.493012	-0.468376	8.014341	-0.002771	-0.003666	0.005862	-0.672119	-0.411377	-0.093262	-0.342196	-0.268707	0.132529	-0.890581
38078		5.484980	-0.477661	7.993016	-0.002159	-0.006572	0.002975	-0.665039	-0.407959	-0.098877	-0.342088	-0.268783	0.132527	-0.890600
38079		5.490610	-0.491246	7.990761	-0.001072	-0.005057	0.001139	-0.664307	-0.410645	-0.096680	-0.341985	-0.268790	0.132502	-0.890641
38080		5.513464	-0.462888	7.996778	-0.000425	-0.008654	0.001795	-0.666016	-0.409424	-0.094238	-0.341904	-0.268863	0.132481	-0.890653
38081		5.516590	-0.464487	8.009247	-0.001709	-0.009036	0.003217	-0.669678	-0.414062	-0.091553	-0.341765	-0.268957	0.132471	-0.890680
38082		5.519665	-0.471448	8.000568	-0.003488	-0.006590	0.003605	-0.668213	-0.410156	-0.099365	-0.341680	-0.269045	0.132470	-0.890686
38083		5.499405	-0.476706	7.973874	-0.000887	-0.002646	0.002249	-0.661865	-0.421143	-0.102783	-0.341624	-0.269013	0.132452	-0.890719
38084		5.498294	-0.466144	8.002291	-0.000044	-0.003505	0.001263	-0.667969	-0.418701	-0.103271	-0.341814	-0.268970	0.132442	-0.890661
38085		5.520349	-0.467115	8.006504	-0.001281	-0.004252	0.003477	-0.670898	-0.417969	-0.093262	-0.341923	-0.268918	0.132466	-0.890631
38086		5.497105	-0.460262	7.994894	-0.001565	-0.006097	0.002159	-0.670166	-0.416016	-0.101074	-0.341935	-0.268994	0.132453	-0.890606
38087		5.502488	-0.474002	7.992786	-0.001483	-0.003283	0.004440	-0.673096	-0.406006	-0.100830	-0.341963	-0.268949	0.132468	-0.890606
38088		5.486253	-0.482113	8.007325	-0.000532	-0.004382	0.000908	-0.670898	-0.420410	-0.101562	-0.341848	-0.268922	0.132460	-0.890660
38089		5.494817	-0.473131	8.013563	-0.000433	-0.004948	0.001115	-0.665283	-0.416260	-0.093750	-0.341981	-0.268905	0.132466	-0.890613
38090		5.522213	-0.462509	7.996922	0.000068	-0.007614	0.000771	-0.671875	-0.410156	-0.099121	-0.341986	-0.269001	0.132426	-0.890588
38091		5.498894	-0.479371	8.004231	0.000306	-0.005404	0.001298	-0.667725	-0.422119	-0.105713	-0.341923	-0.269008	0.132408	-0.890613
38092		5.497498	-0.472322	7.997045	0.001209	-0.010170	0.000404	-0.667969	-0.413574	-0.096680	-0.342114	-0.269016	0.132430	-0.890534
38093		5.497953	-0.466500	8.003243	-0.000864	-0.009895	0.002229	-0.663086	-0.412109	-0.094238	-0.342078	-0.269095	0.132432	-0.890524
38094		5.509380	-0.468464	7.979793	0.000130	-0.011521	0.000864	-0.668701	-0.415039	-0.100342	-0.342011	-0.269223	0.132403	-0.890515
38095		5.488370	-0.486375	8.000212	0.000567	-0.010443	0.001803	-0.669189	-0.408203	-0.096191	-0.342028	-0.269276	0.132410	-0.890492
38096		5.498769	-0.448056	8.007555	0.000092	-0.014863	0.000749	-0.656250	-0.412354	-0.099121	-0.341905	-0.269412	0.132413	-0.890497
38097		5.523382	-0.453994	7.988758	-0.003442	-0.017217	0.001511	-0.666748	-0.415527	-0.093994	-0.341899	-0.269535	0.132464	-0.890455
38098		5.519995	-0.469934	7.972367	-0.001399	-0.010570	0.002458	-0.670654	-0.409912	-0.098633	-0.341873	-0.269640	0.132464	-0.890433
38099		5.506543	-0.479115	7.999738	-0.000811	-0.010259	0.003019	-0.668701	-0.414062	-0.101318	-0.341786	-0.269688	0.132482	-0.890449
38100		5.504302	-0.471387	7.978422	0.000133	-0.011521	0.000861	-0.669922	-0.416748	-0.092285	-0.341813	-0.269734	0.132502	-0.890421
38101		5.528239	-0.442995	7.983651	-0.001684	-0.012415	0.001139	-0.664062	-0.420654	-0.094971	-0.341799	-0.269874	0.132507	-0.890384
38102		5.525559	-0.454780	8.002703	-0.001057	-0.008763	0.001814	-0.670166	-0.412842	-0.101318	-0.341876	-0.269952	0.132500	-0.890332
38103		5.511784	-0.478598	7.966645	-0.000819	-0.006553	0.002341	-0.669189	-0.423096	-0.091309	-0.341877	-0.269931	0.132516	-0.890335
38104		5.540723	-0.464242	7.984725	0.000173	-0.008179	0.000974	-0.663818	-0.414551	-0.099121	-0.341955	-0.270044	0.132484	-0.890276
38105		5.533390	-0.438836	7.986517	-0.003174	-0.008122	0.002851	-0.670898	-0.414307	-0.096680	-0.341971	-0.270055	0.132515	-0.890262
38106		5.519065	-0.482299	7.990912	-0.001018	-0.005421	0.001928	-0.666016	-0.420654	-0.106445	-0.341961	-0.270066	0.132509	-0.890263
38107		5.514042	-0.463660	7.999292	0.000748	-0.004326	0.002234	-0.668945	-0.415283	-0.096436	-0.342122	-0.269986	0.132521	-0.890224
38108		5.534639	-0.458493	8.010977	-0.000041	-0.003668	0.002637	-0.671875	-0.414795	-0.093262	-0.342119	-0.269986	0.132495	-0.890229
38109		5.543467	-0.459560	7.974515	-0.002632	-0.007120	-0.000132	-0.672119	-0.412842	-0.099121	-0.342117	-0.270045	0.132495	-0.890211
38110		5.536807	-0.464615	7.988160	-0.003335	-0.003649	0.002554	-0.665771	-0.417236	-0.105469	-0.342109	-0.270000	0.132522	-0.890224
38111		5.519462	-0.443626	7.991213	-0.007223	-0.004594	0.007415	-0.668701	-0.418945	-0.099121	-0.342173	-0.269889	0.132630	-0.890217
38112		5.526006	-0.456033	8.024073	-0.013524	-0.002873	0.009945	-0.677734	-0.410889	-0.094238	-0.342211	-0.269789	0.132791	-0.890209
38113		5.563044	-0.379725	8.038525	-0.043537	-0.025512	0.008181	-0.668945	-0.416992	-0.102783	-0.342183	-0.269849	0.133365	-0.890116
38114		5.586463	-0.435863	8.070483	-0.078110	-0.031657	0.016181	-0.667236	-0.410889	-0.091797	-0.342319	-0.269749	0.134398	-0.889938
38115		5.676889	-0.245745	8.085729	-0.145725	-0.059157	0.033036	-0.667236	-0.411621	-0.108154	-0.342286	-0.269739	0.136301	-0.889665
38116		5.283579	-0.650317	7.923480	-0.144475	-0.034426	0.074186	-0.672852	-0.407471	-0.096924	-0.341965	-0.269243	0.138286	-0.889632
38117		5.505277	-0.690316	7.939576	-0.070825	-0.058458	0.034915	-0.670166	-0.402588	-0.096924	-0.341668	-0.269504	0.139378	-0.889497
38118		5.592717	-0.625484	7.846880	-0.048114	-0.035551	0.037803	-0.665527	-0.405518	-0.096924	-0.341241	-0.269599	0.140120	-0.889515
38119		5.555457	-0.596983	7.878898	-0.012408	-0.019087	0.039944	-0.670654	-0.401611	-0.100586	-0.340755	-0.269666	0.140396	-0.889637
38120		5.569987	-0.587929	7.952975	0.006912	-0.021557	0.049061	-0.669922	-0.404541	-0.103516	-0.340085	-0.269785	0.140523	-0.889838
38121		5.562673	-0.645123	7.974144	0.007958	-0.028444	0.060681	-0.671631	-0.400879	-0.087402	-0.339353	-0.269937	0.140723	-0.890040
38122		5.637368	-0.576401	8.011294	-0.006960	-0.025155	0.055304	-0.666260	-0.398682	-0.090332	-0.338557	-0.270144	0.140980	-0.890239
38123		5.618959	-0.589735	8.003737	-0.061708	-0.011876	0.048341	-0.674316	-0.394775	-0.097900	-0.338073	-0.269952	0.141775	-0.890355
38124		5.669471	-0.500180	8.047566	-0.090503	-0.016706	0.058688	-0.671143	-0.392578	-0.085938	-0.337583	-0.269600	0.142990	-0.890454
38125		5.705057	-0.548561	8.025300	-0.141308	-0.001740	0.078770	-0.666504	-0.396729	-0.094727	-0.336928	-0.268952	0.144700	-0.890621
38126		5.925003	-0.445814	8.113219	-0.188423	0.044070	0.106537	-0.677002	-0.393311	-0.093262	-0.336388	-0.267477	0.146878	-0.890913
38127		5.572912	-0.782249	7.927135	-0.211130	0.107983	0.140284	-0.667725	-0.388672	-0.104248	-0.335549	-0.265172	0.149129	-0.891544
38128		5.526093	-0.962987	8.037951	-0.170929	0.098831	0.117884	-0.665039	-0.382324	-0.107422	-0.334949	-0.263100	0.150942	-0.892079
38129		4.648773	-1.759038	7.753732	-0.090707	0.015338	0.062189	-0.681396	-0.385498	-0.112549	-0.334533	-0.262391	0.152030	-0.892259
38130		4.281081	-1.521324	7.714907	0.117681	-0.209905	-0.104968	-0.663330	-0.386719	-0.104492	-0.334855	-0.265358	0.151205	-0.891400
38131		5.139500	-0.847468	7.861621	0.189914	-0.364378	-0.243000	-0.675293	-0.386230	-0.087402	-0.336255	-0.270623	0.149749	-0.889534
38132		6.058233	0.377238	7.771872	0.113057	-0.373852	-0.175235	-0.674805	-0.394287	-0.084961	-0.336832	-0.275630	0.149339	-0.887846
38133		5.497259	-1.245734	7.451287	0.025996	-0.243303	-0.131990	-0.683594	-0.402832	-0.076660	-0.337594	-0.278690	0.149517	-0.886570
38134		6.350934	-1.759264	7.244485	0.221342	0.005308	-0.362537	-0.672852	-0.403076	-0.084473	-0.340587	-0.280302	0.145630	-0.885564
38135		5.553493	0.913663	8.685849	0.159512	0.127723	-0.287586	-0.676514	-0.409180	-0.083252	-0.343383	-0.280031	0.142270	-0.885116
38136		5.336489	-1.047629	7.967685	0.008702	-0.115636	-0.137071	-0.668213	-0.412598	-0.078613	-0.344501	-0.281558	0.142109	-0.884222
38137		6.809741	0.296450	7.086280	0.036913	0.113563	-0.117366	-0.671387	-0.430176	-0.079346	-0.345749	-0.280659	0.140706	-0.884246
38138		5.727707	0.753288	8.775849	-0.183028	0.042398	0.228179	-0.668945	-0.418701	-0.086182	-0.343822	-0.279034	0.143207	-0.885109
38139		4.973491	-0.301581	9.924322	-0.380832	-0.481735	0.403892	-0.678711	-0.403320	-0.078125	-0.339781	-0.281967	0.150804	-0.884478
38140		3.032076	0.658417	13.112164	-0.986165	-1.785222	0.813398	-0.695801	-0.380859	-0.052002	-0.330596	-0.295877	0.171970	-0.879539
38141		1.277552	0.424874	15.120233	-1.238112	-4.667731	1.153167	-0.723877	-0.352539	0.032227	-0.311473	-0.339060	0.208559	-0.862859
38142		8.509830	2.068822	14.425200	-1.833835	-6.556665	1.261871	-0.744629	-0.321045	0.146973	-0.286699	-0.398220	0.257941	-0.832280
38143		21.810038	0.861969	10.942416	-2.842584	-4.959648	1.405948	-0.754150	-0.279053	0.239258	-0.269424	-0.433956	0.311299	-0.801365
38144		20.267557	6.427426	-2.973654	-5.198123	-0.227157	0.223508	-0.760498	-0.270508	0.230225	-0.293908	-0.416912	0.364402	-0.779111
38145		6.092295	-5.071503	-8.965801	-2.628691	2.924349	-3.531306	-0.753174	-0.347168	0.160156	-0.354635	-0.393939	0.359823	-0.767837
38146		3.674305	-10.522906	-5.568509	1.661666	2.248254	-3.629888	-0.746094	-0.407471	0.136963	-0.390818	-0.395380	0.315303	-0.769103
38147		-4.625815	-1.492276	-4.772583	2.604515	1.367261	-2.182090	-0.719482	-0.458496	0.130859	-0.403924	-0.403117	0.272399	-0.774687
38148		-2.153996	-2.045391	-4.774288	-0.302582	-1.535407	-0.874135	-0.730957	-0.471436	0.153320	-0.408612	-0.419308	0.278542	-0.761335
38149		0.743129	-9.718349	-3.605060	0.813970	-2.149567	0.213626	-0.727539	-0.461914	0.197998	-0.394692	-0.442983	0.282740	-0.753686
38150		-2.228121	-2.207957	-2.851688	2.624488	-3.063966	0.726914	-0.722656	-0.456055	0.270752	-0.362014	-0.481611	0.276813	-0.748580
38151		43.337331	7.563963	5.764935	2.042444	-1.170555	0.240440	-0.720459	-0.444092	0.294678	-0.343297	-0.500743	0.264372	-0.749340
38152		7.189763	3.304537	0.159391	0.730799	5.996707	0.323868	-0.731934	-0.439209	0.178711	-0.354555	-0.445261	0.233145	-0.788465
38153		8.285586	-3.029660	9.319683	-0.257653	6.805384	0.501240	-0.722900	-0.431885	0.065186	-0.369621	-0.374056	0.207539	-0.824857
38154		0.058264	-8.092040	12.260180	0.479004	5.938020	-0.735729	-0.673828	-0.457031	-0.037354	-0.389367	-0.315957	0.171214	-0.848086
38155		1.579679	3.028877	16.477829	0.967977	3.429454	-1.509238	-0.647461	-0.486328	-0.092041	-0.408472	-0.287172	0.138147	-0.855335
38156		2.501355	1.679261	13.230388	0.156153	0.262938	-0.397614	-0.644043	-0.498779	-0.089111	-0.412638	-0.285805	0.133679	-0.854503
38157		6.072769	1.724460	9.285163	-0.105201	-0.783936	-0.237971	-0.647217	-0.494873	-0.066650	-0.414241	-0.293971	0.137926	-0.850272
38158		5.726045	3.680495	10.647281	-0.672451	-1.574116	0.711196	-0.660156	-0.482178	-0.052979	-0.406343	-0.305865	0.155724	-0.846807
38159		2.659165	-1.145402	13.410646	-0.878189	-3.328826	1.142000	-0.690430	-0.457764	-0.006104	-0.390729	-0.334044	0.186020	-0.837342
38160		2.685942	-3.721566	13.434746	-0.604692	-5.888423	0.521424	-0.715576	-0.443359	0.112549	-0.373049	-0.390481	0.222605	-0.811669
38161		12.001403	-2.528005	12.455153	-0.456154	-6.923769	-0.251625	-0.724365	-0.442627	0.224854	-0.357188	-0.457683	0.257249	-0.772506
38162		23.416459	5.462603	9.054510	-2.038475	-4.069883	-0.246970	-0.725098	-0.448242	0.287842	-0.357581	-0.487855	0.293081	-0.740430
38163		19.491421	-2.558275	-5.499754	-3.973849	1.225732	-0.707747	-0.724609	-0.462158	0.239990	-0.392352	-0.460617	0.319450	-0.729276
38164		1.487661	-4.138341	-8.050293	-1.148001	1.682828	-1.409420	-0.721924	-0.492432	0.200439	-0.418355	-0.445012	0.313268	-0.727191
38165		2.609740	-6.932418	-4.171813	1.590169	1.085057	0.171655	-0.730469	-0.488037	0.194092	-0.412102	-0.442628	0.293937	-0.740171
38166		-3.523942	0.374084	-3.845572	2.205773	0.054480	0.803997	-0.730469	-0.481934	0.210205	-0.392515	-0.450309	0.277559	-0.752406
38167		1.967334	2.023553	-0.622901	0.270909	-0.750379	0.762414	-0.730713	-0.458008	0.213379	-0.381211	-0.455977	0.282954	-0.752795
38168		0.019753	-0.010929	-0.568816	0.371958	0.033337	0.387571	-0.733887	-0.454346	0.220459	-0.375585	-0.456027	0.281492	-0.756133
38169		-2.507693	2.300565	-1.482624	0.753033	-0.632449	0.182016	-0.734863	-0.445312	0.239746	-0.367351	-0.464836	0.278357	-0.755975
38170		-0.471008	2.452629	-1.113729	0.184197	-1.602985	-0.146706	-0.721680	-0.460205	0.269043	-0.362046	-0.481217	0.283058	-0.746479
38171		44.294098	0.456756	-6.239748	0.885082	-0.033709	-0.467332	-0.710205	-0.456543	0.271729	-0.360966	-0.487129	0.272101	-0.747242
38172		9.770272	3.799337	11.268855	0.419039	6.874705	0.848666	-0.719727	-0.451660	0.151123	-0.372549	-0.420179	0.241429	-0.791435
38173		7.798054	-6.004184	10.169176	0.205736	6.712114	0.154500	-0.697998	-0.452148	0.026123	-0.388912	-0.352868	0.208164	-0.825166
38174		-0.432869	-7.400472	13.865613	0.801088	4.902058	-1.434572	-0.667480	-0.485107	-0.042725	-0.412156	-0.309223	0.169369	-0.840133
38175		2.627243	5.053226	15.612467	0.822023	2.047873	-1.710520	-0.639648	-0.520264	-0.078857	-0.431069	-0.295366	0.143494	-0.840445
38176		4.866103	3.751280	11.183146	-0.017563	-0.301311	-0.388881	-0.640137	-0.530518	-0.065918	-0.434695	-0.299090	0.143822	-0.837198
38177		6.433549	3.390257	9.667775	-0.656629	-1.157350	0.330098	-0.648926	-0.513672	-0.053223	-0.431566	-0.306951	0.158123	-0.833384
38178		4.822710	3.486715	11.619893	-1.110554	-2.366341	1.394013	-0.677979	-0.483154	-0.022949	-0.416346	-0.322596	0.187600	-0.829092
38179		0.562501	-2.234120	14.101927	-1.058328	-4.858505	1.698166	-0.713379	-0.438965	0.061523	-0.390747	-0.362687	0.230139	-0.814132
38180		9.635593	-4.072050	15.580206	-1.151216	-7.063413	0.945249	-0.724365	-0.416992	0.175049	-0.364476	-0.424613	0.279470	-0.780229
38181		27.767208	3.449174	11.082507	-2.582671	-5.014854	0.149837	-0.733398	-0.418945	0.253906	-0.358311	-0.460092	0.327377	-0.743474
38182		23.379234	-0.961536	-10.533358	-5.755878	1.045085	-1.312892	-0.737061	-0.439941	0.211426	-0.406844	-0.428662	0.367477	-0.718113
38183		2.826889	-12.152812	-9.013220	-0.231988	1.641678	-1.146354	-0.729248	-0.455078	0.170898	-0.425809	-0.417850	0.354835	-0.719847
38184		3.634286	-5.767248	0.911157	4.741925	1.452131	0.722060	-0.740723	-0.454346	0.161621	-0.400199	-0.425971	0.307512	-0.750884
38185		-5.557774	4.792598	2.804214	3.512643	1.958984	0.919564	-0.736084	-0.442139	0.156494	-0.379905	-0.421027	0.269237	-0.778409
38186		-6.896653	3.560739	-1.846184	-0.029679	-0.175677	-0.016335	-0.740723	-0.434570	0.157227	-0.379654	-0.422613	0.270222	-0.777330
38187		2.762640	-4.819467	-2.987312	-0.102465	-0.876576	0.308299	-0.740479	-0.437988	0.176514	-0.374235	-0.429537	0.276917	-0.773798
38188		-0.989929	0.787303	-5.022694	1.843403	-1.091697	0.639875	-0.737549	-0.416504	0.213623	-0.354255	-0.446301	0.267489	-0.777025
38189		0.759934	9.401872	-1.411807	0.840813	-1.716414	-0.397783	-0.734619	-0.436279	0.243408	-0.347616	-0.467861	0.264609	-0.768278
38190		0.562366	0.617399	-2.874496	-1.058462	-2.142138	-1.547056	-0.713867	-0.451660	0.271973	-0.361383	-0.488628	0.274815	-0.745065
38191		47.770718	-3.261936	-6.773659	-0.134946	0.223448	-0.067288	-0.718506	-0.466064	0.272461	-0.363629	-0.486148	0.274609	-0.745671
38192		15.192309	5.163721	14.596222	-0.894759	8.402062	2.309854	-0.719238	-0.425537	0.101318	-0.374232	-0.393120	0.257254	-0.799517
38193		4.774654	-10.894004	9.139820	0.396372	7.511363	0.992421	-0.698730	-0.414062	-0.027832	-0.384872	-0.315072	0.221942	-0.838656
38194		-0.452810	-10.644286	12.088701	1.592091	5.960288	-0.936238	-0.644531	-0.436035	-0.112305	-0.403824	-0.261944	0.172302	-0.859432
38195		-4.895500	4.317033	20.172706	0.596802	1.229848	-0.638314	-0.644043	-0.458008	-0.140137	-0.411365	-0.253059	0.157604	-0.861337
38196		8.808405	3.841872	8.111006	0.250602	-0.593686	-0.626362	-0.634277	-0.467041	-0.122070	-0.416144	-0.261913	0.155922	-0.856688
38197		7.472249	1.246376	8.336701	-0.400075	0.073107	0.069870	-0.641602	-0.463867	-0.128906	-0.416863	-0.258871	0.160000	-0.856511
38198		8.827132	0.546148	9.264470	-0.845804	0.744497	0.371080	-0.630371	-0.455811	-0.142822	-0.417091	-0.245686	0.166304	-0.859079
38199		6.731084	-1.923841	7.254743	-0.923700	1.341810	0.836834	-0.628418	-0.426270	-0.171631	-0.413645	-0.224627	0.171701	-0.865424
38200		5.529925	-3.861284	7.119673	-0.491388	1.218216	0.776387	-0.622314	-0.406494	-0.192871	-0.409193	-0.207173	0.172826	-0.871649
38201		3.480727	-2.882206	7.735413	0.134544	1.236273	0.477265	-0.602051	-0.405762	-0.212158	-0.406294	-0.193304	0.166224	-0.877456
38202		1.873802	0.691291	8.080807	0.177917	1.181293	0.211429	-0.597168	-0.405518	-0.222656	-0.405990	-0.180760	0.158743	-0.881645
38203		1.746403	1.059933	8.402878	-0.110026	0.743446	0.087583	-0.585205	-0.406494	-0.242432	-0.406759	-0.171792	0.156338	-0.883512
38204		3.570061	-2.158956	8.648894	-0.204766	0.456784	0.042336	-0.581543	-0.404785	-0.255127	-0.407636	-0.165581	0.156312	-0.884297
38205		4.361958	-2.525782	8.623273	-0.014136	0.402210	0.044223	-0.580322	-0.398926	-0.260986	-0.407978	-0.160935	0.154457	-0.885323
38206		4.339196	-2.178492	8.892882	0.130048	0.422390	0.034545	-0.576416	-0.411621	-0.263184	-0.408167	-0.156816	0.150886	-0.886590
38207		4.621682	-1.075537	9.553111	0.178713	0.457415	0.041470	-0.568359	-0.412109	-0.276123	-0.408238	-0.152539	0.146610	-0.888020
38208		3.990634	-0.470615	9.375791	0.084986	0.476289	0.047699	-0.566162	-0.403076	-0.269531	-0.408438	-0.147557	0.143284	-0.889312
38209		3.073471	-0.279648	8.610481	-0.042290	0.444706	0.005566	-0.562500	-0.413330	-0.284912	-0.409268	-0.142348	0.141448	-0.890072
38210		2.913758	-1.467662	8.336215	-0.112133	0.375578	-0.022368	-0.553467	-0.407715	-0.292236	-0.410397	-0.137594	0.140684	-0.890421
38211		2.013397	-1.917370	8.277105	-0.072191	0.203894	0.046594	-0.552246	-0.404297	-0.289062	-0.410381	-0.134833	0.140473	-0.890884
38212		2.028108	-1.949906	8.370927	0.010656	-0.053198	0.065500	-0.551758	-0.410400	-0.291260	-0.409561	-0.135323	0.140688	-0.891154
38213		3.973912	-0.895995	9.289530	-0.019539	-0.064195	0.108076	-0.552490	-0.397217	-0.286621	-0.408296	-0.135704	0.141366	-0.891569
38214		3.273165	-1.124009	9.093588	-0.056168	-0.071169	0.058062	-0.550781	-0.402100	-0.285156	-0.407638	-0.136065	0.142403	-0.891650
38215		3.052486	-1.656861	8.768589	0.026550	-0.187146	-0.084481	-0.560547	-0.393066	-0.293701	-0.408218	-0.138393	0.142863	-0.890952
38216		2.429038	-1.435393	8.448436	0.078201	-0.382438	-0.104411	-0.561523	-0.408447	-0.281250	-0.408577	-0.143192	0.143709	-0.889893
38217		3.967293	-1.173368	9.011377	0.028527	-0.379256	-0.020308	-0.564697	-0.405029	-0.276123	-0.408083	-0.147545	0.145235	-0.889160
38218		2.512443	-1.701753	8.259168	0.046948	-0.505866	-0.010446	-0.570312	-0.406250	-0.265625	-0.407204	-0.153379	0.147217	-0.888249
38219		3.466077	-1.190359	8.875882	0.009582	-0.628501	0.053267	-0.578613	-0.404785	-0.263184	-0.405443	-0.160257	0.150351	-0.887315
38220		-1.243837	-0.719725	5.956314	0.036396	-1.150802	-0.024411	-0.587891	-0.412109	-0.235596	-0.403453	-0.173188	0.155657	-0.884874
38221		-3.841509	-1.480542	5.229605	0.415445	-2.970626	-0.759250	-0.624268	-0.412109	-0.189209	-0.404882	-0.209427	0.164209	-0.874784
38222		18.338809	-4.895978	11.241365	1.425830	-2.430784	-1.024063	-0.639160	-0.447998	-0.144775	-0.407079	-0.245107	0.158036	-0.865583
38223		9.234679	3.228702	9.974759	0.593541	-0.285064	-0.312516	-0.629639	-0.458984	-0.134521	-0.408086	-0.251774	0.152057	-0.864265
38224		5.631728	0.684368	8.633703	0.124556	-0.097621	-0.042186	-0.633545	-0.450928	-0.131348	-0.407986	-0.253503	0.151026	-0.863988
38225		5.460028	-0.491441	8.164632	-0.004305	-0.094820	0.030204	-0.633789	-0.458984	-0.128174	-0.407514	-0.254407	0.151595	-0.863845
38226		5.595370	-0.657712	7.957758	0.011525	-0.063186	0.009547	-0.636963	-0.461914	-0.125977	-0.407274	-0.255089	0.151767	-0.863727
38227		5.567530	-0.544341	7.968719	0.007756	-0.005223	0.013192	-0.637207	-0.462646	-0.128662	-0.407118	-0.255119	0.151696	-0.863804
38228		5.423159	-0.576846	8.043881	0.014791	0.002123	0.008043	-0.633789	-0.465332	-0.135986	-0.407009	-0.255116	0.151497	-0.863891
38229		5.520984	-0.513478	8.022080	0.009471	0.010593	0.007770	-0.633301	-0.463867	-0.129639	-0.406936	-0.254995	0.151311	-0.863994
38230		5.514513	-0.606152	8.093423	0.017443	0.015393	-0.014925	-0.643555	-0.467285	-0.122314	-0.407091	-0.254905	0.150942	-0.864012
38231		5.498132	-0.417542	8.068753	-0.013579	-0.023983	-0.028824	-0.636475	-0.467285	-0.128174	-0.407421	-0.255109	0.151065	-0.863775
38232		5.409562	-0.452591	8.050291	-0.013412	-0.014213	-0.003595	-0.642334	-0.458740	-0.119629	-0.407497	-0.255161	0.151216	-0.863697
38233		5.428588	-0.532981	8.019805	0.003128	-0.005485	0.003172	-0.629883	-0.455322	-0.130859	-0.407462	-0.255190	0.151166	-0.863714
38234		5.437435	-0.531004	7.977067	0.025390	0.015910	-0.006769	-0.636719	-0.462646	-0.121826	-0.407507	-0.255119	0.150736	-0.863789
38235		5.476392	-0.412549	8.028795	0.022763	0.028709	-0.003636	-0.628662	-0.458008	-0.133545	-0.407548	-0.254892	0.150277	-0.863916
38236		5.414443	-0.467798	8.064986	0.013659	0.023779	0.004595	-0.633057	-0.465820	-0.129639	-0.407522	-0.254655	0.149970	-0.864052
38237		5.377031	-0.507079	8.071924	0.011936	0.012067	0.004169	-0.643555	-0.464844	-0.130371	-0.407483	-0.254537	0.149738	-0.864145
38238		5.448800	-0.498141	8.065365	0.014405	0.000471	-0.001307	-0.641357	-0.457520	-0.128906	-0.407473	-0.254568	0.149521	-0.864179
38239		5.396848	-0.476627	8.074146	0.009135	-0.009872	-0.003007	-0.635742	-0.463379	-0.125977	-0.407477	-0.254686	0.149409	-0.864161
38240		5.404407	-0.484393	8.055970	0.007303	-0.020781	-0.004994	-0.638184	-0.457764	-0.129395	-0.407489	-0.254917	0.149364	-0.864095
38241		5.460428	-0.411126	8.058478	0.004232	-0.022155	-0.002772	-0.635986	-0.459961	-0.126465	-0.407485	-0.255142	0.149368	-0.864030
38242		5.445585	-0.484161	8.025105	0.000874	-0.018377	0.005725	-0.632324	-0.463135	-0.121094	-0.407406	-0.255294	0.149415	-0.864014
38243		5.439280	-0.507133	8.034303	0.003458	-0.016617	-0.001244	-0.632812	-0.464844	-0.122803	-0.407396	-0.255454	0.149399	-0.863974
38244		5.463888	-0.440245	8.033264	0.006435	-0.012083	-0.003796	-0.644775	-0.461914	-0.136230	-0.407415	-0.255584	0.149321	-0.863940
38245		5.408978	-0.476455	8.039686	0.005902	-0.010041	-0.003143	-0.628906	-0.462402	-0.124023	-0.407436	-0.255686	0.149251	-0.863913
38246		5.441505	-0.444502	8.074478	0.005289	-0.015538	-0.003448	-0.635010	-0.463379	-0.126709	-0.407449	-0.255847	0.149204	-0.863867
38247		5.467003	-0.402342	8.040715	0.002008	-0.021759	0.000264	-0.635254	-0.463867	-0.125244	-0.407420	-0.256051	0.149239	-0.863814
38248		5.466477	-0.439338	8.011430	-0.007571	-0.021815	0.007642	-0.638916	-0.464111	-0.127197	-0.407342	-0.256193	0.149400	-0.863781
38249		5.447531	-0.501227	8.051232	-0.004031	-0.016732	0.004292	-0.631348	-0.467041	-0.131348	-0.407298	-0.256304	0.149488	-0.863753
38250		5.475576	-0.422754	8.030525	0.000829	-0.014748	0.002626	-0.635742	-0.457275	-0.127686	-0.407267	-0.256420	0.149510	-0.863730
38251		5.473747	-0.435611	8.034171	-0.005726	-0.016255	0.009306	-0.641846	-0.461182	-0.131104	-0.407174	-0.256508	0.149632	-0.863726
38252		5.481772	-0.469314	8.040456	-0.009912	-0.015266	0.009434	-0.636230	-0.455078	-0.127686	-0.407097	-0.256563	0.149795	-0.863718
38253		5.466756	-0.502305	8.028585	-0.005215	-0.015304	0.007724	-0.637451	-0.466064	-0.121338	-0.407021	-0.256646	0.149901	-0.863711
38254		5.459792	-0.484592	8.023810	-0.002075	-0.014099	0.004891	-0.633545	-0.464355	-0.139404	-0.406965	-0.256740	0.149949	-0.863701
38255		5.464465	-0.490172	8.013943	0.001960	-0.011527	0.003654	-0.637939	-0.466309	-0.126709	-0.406934	-0.256822	0.149955	-0.863690
38256		5.476000	-0.463960	8.022482	0.003379	-0.011100	-0.000342	-0.633545	-0.465332	-0.127197	-0.406927	-0.256920	0.149916	-0.863671
38257		5.438829	-0.492146	8.028124	0.003637	-0.014361	-0.002607	-0.635742	-0.459961	-0.124756	-0.406939	-0.257057	0.149885	-0.863630
38258		5.497870	-0.429740	8.014907	0.001831	-0.015204	-0.001786	-0.638184	-0.455078	-0.124512	-0.406942	-0.257194	0.149880	-0.863589
38259		5.482366	-0.456753	8.024913	0.001486	-0.014132	-0.000165	-0.637939	-0.464600	-0.124023	-0.406926	-0.257315	0.149880	-0.863560
38260		5.499827	-0.464319	8.019939	-0.000015	-0.013289	-0.000503	-0.635498	-0.469727	-0.127441	-0.406925	-0.257420	0.149887	-0.863528
38261		5.488975	-0.438471	8.009844	-0.004334	-0.015190	0.003141	-0.641113	-0.464355	-0.122070	-0.406903	-0.257515	0.149964	-0.863497
38262		5.455463	-0.497460	8.010141	-0.003162	-0.014727	0.003715	-0.641357	-0.463867	-0.123047	-0.406859	-0.257613	0.150024	-0.863478
38263		5.489390	-0.473211	8.001101	-0.000290	-0.014508	-0.002115	-0.636963	-0.465332	-0.125977	-0.406871	-0.257733	0.150036	-0.863434
38264		5.487887	-0.463221	8.015457	0.000452	-0.013040	0.002066	-0.633057	-0.466553	-0.120605	-0.406846	-0.257832	0.150049	-0.863415
38265		5.488465	-0.461241	8.000336	-0.000196	-0.010195	0.001158	-0.636719	-0.463867	-0.127686	-0.406834	-0.257901	0.150043	-0.863401
38266		5.504973	-0.466277	8.017341	0.000886	-0.011922	0.001087	-0.643311	-0.458740	-0.121826	-0.406823	-0.257989	0.150047	-0.863378
38267		5.469240	-0.500185	8.015421	0.001641	-0.006761	0.000194	-0.648193	-0.473145	-0.118896	-0.406812	-0.258032	0.150007	-0.863378
38268		5.504398	-0.457994	8.009746	0.005246	-0.007197	-0.004086	-0.639160	-0.457764	-0.123535	-0.406832	-0.258109	0.149904	-0.863363
38269		5.497385	-0.436880	8.041303	0.002477	-0.007116	-0.001624	-0.634521	-0.467529	-0.122314	-0.406845	-0.258161	0.149856	-0.863350
38270		5.472301	-0.471122	8.031015	0.000990	-0.009499	0.000347	-0.640869	-0.458496	-0.126709	-0.406844	-0.258228	0.149835	-0.863334
38271		5.499493	-0.434229	8.025164	0.000948	-0.012323	0.001870	-0.634766	-0.465088	-0.119629	-0.406819	-0.258319	0.149847	-0.863317
38272		5.492893	-0.463320	7.991862	-0.001867	-0.011607	0.002164	-0.636230	-0.461914	-0.126221	-0.406797	-0.258393	0.149869	-0.863301
38273		5.501486	-0.451661	8.019572	0.000186	-0.012135	0.003085	-0.638428	-0.462646	-0.123779	-0.406768	-0.258476	0.149891	-0.863286
38274		5.492282	-0.475309	7.994752	0.003015	-0.007035	0.000344	-0.637695	-0.462158	-0.122314	-0.406762	-0.258525	0.149841	-0.863283
38275		5.509513	-0.439380	8.011600	0.002767	-0.005663	-0.001403	-0.635010	-0.457764	-0.124268	-0.406776	-0.258563	0.149779	-0.863276
38276		5.499801	-0.438556	8.019409	0.000538	-0.005501	0.003032	-0.635742	-0.467529	-0.123047	-0.406754	-0.258577	0.149762	-0.863285
38277		5.519161	-0.456536	7.999664	0.000409	0.000650	0.001790	-0.634277	-0.456543	-0.123535	-0.406761	-0.258528	0.149702	-0.863307
38278		5.501065	-0.465078	8.001002	0.003776	0.005832	0.001019	-0.644287	-0.461914	-0.126221	-0.406768	-0.258440	0.149585	-0.863350
38279		5.502039	-0.445159	8.025957	0.003185	0.008275	0.000894	-0.639893	-0.470459	-0.123535	-0.406782	-0.258322	0.149463	-0.863400
38280		5.507030	-0.438430	8.013359	0.000460	0.011180	0.001834	-0.635498	-0.470215	-0.122559	-0.406805	-0.258162	0.149347	-0.863457
38281		5.496799	-0.466577	8.018703	0.003373	0.014778	0.004810	-0.632812	-0.457275	-0.117432	-0.406797	-0.257972	0.149189	-0.863544
38282		5.468227	-0.457988	8.032496	0.003398	0.015244	0.002041	-0.635254	-0.465332	-0.121582	-0.406798	-0.257786	0.149015	-0.863630
38283		5.494667	-0.431148	8.013797	0.000669	0.012568	0.004041	-0.645264	-0.466309	-0.119141	-0.406795	-0.257609	0.148894	-0.863705
38284		5.484947	-0.438339	8.029588	-0.001104	0.014316	0.004725	-0.635986	-0.467529	-0.116943	-0.406772	-0.257407	0.148778	-0.863796
38285		5.458082	-0.457306	8.024601	0.000386	0.013240	0.006444	-0.635498	-0.461914	-0.125977	-0.406732	-0.257223	0.148650	-0.863891
38286		5.431342	-0.473464	8.040893	-0.001166	0.009135	0.005004	-0.629883	-0.459473	-0.124268	-0.406727	-0.257066	0.148584	-0.863952
38287		5.469603	-0.445076	8.034392	0.000517	0.005198	0.003677	-0.634766	-0.456543	-0.125244	-0.406725	-0.256963	0.148512	-0.863996
38288		5.472344	-0.453082	8.040509	-0.002254	0.005281	0.006136	-0.626221	-0.455566	-0.131592	-0.406696	-0.256840	0.148481	-0.864052
38289		5.445364	-0.469766	8.020874	0.000952	0.006315	0.002698	-0.630859	-0.466797	-0.123779	-0.406728	-0.256718	0.148419	-0.864083
38290		5.465993	-0.447041	8.036739	0.000246	0.006102	0.004697	-0.635010	-0.467773	-0.124023	-0.406719	-0.256606	0.148339	-0.864134
38291		5.469197	-0.436246	8.032019	-0.000743	0.010020	0.005408	-0.628662	-0.462891	-0.125732	-0.406708	-0.256446	0.148252	-0.864202
38292		5.422375	-0.477642	8.046697	-0.000930	0.010990	0.004443	-0.638916	-0.465088	-0.130127	-0.406718	-0.256272	0.148167	-0.864264
38293		5.426540	-0.447558	8.030830	0.003032	0.006252	0.000854	-0.636963	-0.469238	-0.127197	-0.406743	-0.256172	0.148061	-0.864299
38294		5.430925	-0.453880	8.071937	0.000957	0.000965	0.002377	-0.631104	-0.461914	-0.122559	-0.406750	-0.256121	0.147998	-0.864322
38295		5.445427	-0.443839	8.022373	0.000301	-0.001772	0.002531	-0.638428	-0.467041	-0.131348	-0.406734	-0.256101	0.147948	-0.864344
38296		5.450189	-0.429747	8.037991	0.000851	-0.001457	0.003119	-0.638428	-0.468750	-0.131592	-0.406735	-0.256067	0.147914	-0.864360
38297		5.445207	-0.439278	8.065194	-0.003034	-0.002236	0.005786	-0.638672	-0.468994	-0.128174	-0.406722	-0.256017	0.147935	-0.864377
38298		5.425736	-0.468512	8.041766	-0.000548	-0.001649	0.005731	-0.635010	-0.461426	-0.132324	-0.406693	-0.255979	0.147915	-0.864405
38299		5.434257	-0.461777	8.062843	0.001415	-0.000910	0.002322	-0.632812	-0.465088	-0.128662	-0.406698	-0.255942	0.147876	-0.864421
38300		5.433198	-0.459363	8.048887	0.002067	-0.005646	-0.000780	-0.632080	-0.468750	-0.130615	-0.406726	-0.255970	0.147830	-0.864407
38301		5.437176	-0.442089	8.050408	0.003582	-0.006257	-0.001827	-0.631836	-0.464111	-0.118896	-0.406774	-0.256013	0.147772	-0.864382
38302		5.429852	-0.445660	8.049913	0.002526	-0.007521	-0.000835	-0.632080	-0.465576	-0.134033	-0.406766	-0.256080	0.147700	-0.864378
38303		5.438309	-0.435718	8.056403	0.001392	-0.010741	-0.001870	-0.643066	-0.455811	-0.128906	-0.406817	-0.256152	0.147703	-0.864332
38304		5.448587	-0.452470	8.044116	0.001987	-0.011060	0.000884	-0.631836	-0.462402	-0.130371	-0.406777	-0.256235	0.147698	-0.864327
38305		5.471943	-0.450973	8.047296	-0.001028	-0.009604	0.001596	-0.634033	-0.463623	-0.131592	-0.406783	-0.256282	0.147722	-0.864307
38306		5.460144	-0.424878	8.037906	0.000073	-0.008975	0.002770	-0.633301	-0.457764	-0.130859	-0.406777	-0.256323	0.147738	-0.864294
38307		5.444043	-0.434248	8.037791	-0.002287	-0.004781	0.003328	-0.637939	-0.467773	-0.127930	-0.406762	-0.256307	0.147761	-0.864302
38308		5.439247	-0.465111	8.054061	-0.000443	-0.006699	0.002042	-0.643555	-0.456055	-0.128662	-0.406763	-0.256331	0.147754	-0.864296
38309		5.460835	-0.440524	8.054552	-0.003000	-0.007117	0.002699	-0.636230	-0.468018	-0.128906	-0.406721	-0.256342	0.147787	-0.864307
38310		5.436050	-0.454381	8.054831	-0.002295	-0.006906	0.000700	-0.633057	-0.459961	-0.126221	-0.406750	-0.256359	0.147800	-0.864286
38311		5.451162	-0.438820	8.047543	-0.000652	-0.008086	-0.000167	-0.636475	-0.455566	-0.132324	-0.406753	-0.256402	0.147793	-0.864273
38312		5.444133	-0.443531	8.046799	-0.000617	-0.008953	0.003383	-0.641357	-0.461182	-0.130859	-0.406718	-0.256436	0.147826	-0.864273
38313		5.430573	-0.457282	8.038317	0.002843	-0.009060	0.000305	-0.634033	-0.460693	-0.128906	-0.406707	-0.256498	0.147803	-0.864264
38314		5.437048	-0.442311	8.052851	0.002563	-0.010279	-0.001302	-0.641113	-0.464844	-0.132080	-0.406720	-0.256578	0.147779	-0.864239
38315		5.451636	-0.447448	8.035077	0.001505	-0.006194	0.000012	-0.635986	-0.463379	-0.115967	-0.406738	-0.256600	0.147759	-0.864227
38316		5.440562	-0.444358	8.029102	0.001472	-0.008784	0.000152	-0.628906	-0.463379	-0.134521	-0.406697	-0.256683	0.147692	-0.864233
38317		5.427139	-0.454795	8.041987	0.002110	-0.013753	-0.001569	-0.637695	-0.463135	-0.125000	-0.406754	-0.256785	0.147713	-0.864172
38318		5.466849	-0.441528	8.030318	0.003294	-0.013059	-0.002381	-0.631592	-0.465820	-0.126709	-0.406756	-0.256908	0.147676	-0.864141
38319		5.447680	-0.439351	8.045825	0.003446	-0.011270	-0.000956	-0.632568	-0.462646	-0.134033	-0.406777	-0.257006	0.147640	-0.864108
38320		5.458128	-0.411039	8.040375	-0.001238	-0.016572	0.000448	-0.637939	-0.467529	-0.127930	-0.406803	-0.257117	0.147719	-0.864049
38321		5.471417	-0.430897	8.040651	-0.002231	-0.018236	0.002224	-0.638672	-0.467285	-0.125732	-0.406791	-0.257253	0.147794	-0.864002
38322		5.490734	-0.424137	8.002221	-0.005654	-0.015539	0.005165	-0.644531	-0.460693	-0.132812	-0.406754	-0.257341	0.147894	-0.863976
38323		5.486151	-0.430192	8.035909	-0.008103	-0.011643	0.009099	-0.638672	-0.464111	-0.120850	-0.406677	-0.257351	0.148045	-0.863983
38324		5.454515	-0.476841	8.017734	-0.006887	-0.008359	0.008146	-0.643311	-0.465820	-0.121582	-0.406594	-0.257362	0.148112	-0.864007
38325		5.477936	-0.455422	8.031589	-0.001948	-0.006086	0.003090	-0.637451	-0.461182	-0.128418	-0.406552	-0.257381	0.148100	-0.864024
38326		5.490597	-0.438022	8.011138	-0.000121	-0.002889	0.003507	-0.633301	-0.464844	-0.118896	-0.406531	-0.257356	0.148086	-0.864043
38327		5.471289	-0.442489	8.019997	-0.000987	0.000227	0.005789	-0.641602	-0.463379	-0.125000	-0.406480	-0.257313	0.148030	-0.864090
38328		5.434301	-0.458445	8.008459	0.000627	0.002037	0.003997	-0.640381	-0.473145	-0.125244	-0.406443	-0.257248	0.147968	-0.864137
38329		5.470591	-0.440485	8.041892	0.002114	-0.000932	0.001700	-0.625488	-0.469971	-0.120117	-0.406460	-0.257228	0.147892	-0.864148
38330		5.459076	-0.416638	8.047120	-0.002193	-0.002824	0.005357	-0.637939	-0.466553	-0.133789	-0.406458	-0.257210	0.147867	-0.864159
38331		5.473582	-0.446700	8.033063	0.000700	-0.003479	0.003071	-0.635254	-0.464844	-0.125488	-0.406483	-0.257183	0.147868	-0.864155
38332		5.445902	-0.412824	8.027789	-0.000742	-0.003035	0.003522	-0.640381	-0.468994	-0.121582	-0.406471	-0.257164	0.147847	-0.864169
38333		5.438198	-0.460082	8.041893	-0.000990	-0.007012	0.001451	-0.637939	-0.469971	-0.114990	-0.406462	-0.257203	0.147822	-0.864167
38334		5.450459	-0.457867	8.053781	0.001870	-0.010258	-0.000697	-0.637451	-0.471436	-0.127930	-0.406440	-0.257313	0.147745	-0.864157
38335		5.463630	-0.415851	8.029212	0.000103	-0.013856	-0.000332	-0.641357	-0.460693	-0.126465	-0.406481	-0.257417	0.147767	-0.864103
38336		5.480916	-0.423987	8.024184	-0.002297	-0.012485	0.001758	-0.638916	-0.467773	-0.127441	-0.406447	-0.257492	0.147814	-0.864089
38337		5.474412	-0.431933	8.001605	-0.002239	-0.007538	0.002866	-0.634521	-0.468018	-0.132324	-0.406452	-0.257510	0.147841	-0.864077
38338		5.472382	-0.446766	8.020215	-0.003431	-0.003116	0.005389	-0.628662	-0.469971	-0.127686	-0.406480	-0.257454	0.147890	-0.864072
38339		5.479182	-0.438516	8.027736	-0.000551	0.001343	0.004811	-0.632568	-0.468750	-0.128418	-0.406515	-0.257380	0.147861	-0.864082
38340		5.453657	-0.433824	8.018090	-0.002545	0.001474	0.004677	-0.630859	-0.465332	-0.124268	-0.406545	-0.257292	0.147855	-0.864095
38341		5.476505	-0.435631	8.036184	-0.002415	0.000905	0.004858	-0.636719	-0.464355	-0.124268	-0.406538	-0.257223	0.147832	-0.864123
38342		5.480092	-0.446809	8.020198	-0.002450	0.003663	0.005322	-0.638428	-0.467285	-0.127930	-0.406513	-0.257123	0.147797	-0.864171
38343		5.459400	-0.448816	8.051497	-0.000853	0.005005	0.006296	-0.637939	-0.458984	-0.132324	-0.406503	-0.257006	0.147757	-0.864217
38344		5.458702	-0.452469	8.030435	-0.000448	0.003765	0.004072	-0.640381	-0.461670	-0.132080	-0.406487	-0.256894	0.147733	-0.864262
38345		5.451965	-0.441067	8.033710	-0.001820	0.004042	0.003922	-0.633301	-0.465332	-0.125977	-0.406485	-0.256774	0.147720	-0.864301
38346		5.443222	-0.469978	8.037921	-0.000974	0.005808	0.004732	-0.635254	-0.457764	-0.123779	-0.406485	-0.256657	0.147661	-0.864346
38347		5.439526	-0.441591	8.043366	0.002538	-0.000051	0.002103	-0.631348	-0.466064	-0.126465	-0.406431	-0.256633	0.147574	-0.864393
38348		5.452425	-0.447369	8.026583	0.000044	-0.000868	0.003548	-0.637939	-0.468506	-0.125000	-0.406441	-0.256594	0.147536	-0.864406
38349		5.453346	-0.471767	8.029704	-0.001854	0.001452	0.004059	-0.633301	-0.462646	-0.123779	-0.406445	-0.256525	0.147499	-0.864431
38350		5.436325	-0.459349	8.041257	0.001528	0.001510	0.001576	-0.632812	-0.471436	-0.131104	-0.406436	-0.256480	0.147413	-0.864464
38351		5.469004	-0.437010	8.047683	0.001097	0.000394	0.002555	-0.638916	-0.463379	-0.122559	-0.406505	-0.256421	0.147375	-0.864455
38352		5.451454	-0.445975	8.048646	0.000467	0.000015	0.003953	-0.635742	-0.465820	-0.130615	-0.406454	-0.256388	0.147308	-0.864500
38353		5.433101	-0.434008	8.024891	0.001036	0.000795	0.001772	-0.629150	-0.456543	-0.128906	-0.406489	-0.256327	0.147265	-0.864509
38354		5.451404	-0.446594	8.048646	-0.001070	-0.001729	0.003760	-0.639404	-0.459717	-0.125000	-0.406453	-0.256284	0.147255	-0.864541
38355		5.468981	-0.438635	8.047610	-0.000905	0.000292	0.003804	-0.636719	-0.456787	-0.131348	-0.406393	-0.256233	0.147212	-0.864591
38356		5.449466	-0.445986	8.035134	-0.001923	0.001621	0.004660	-0.636963	-0.471436	-0.132568	-0.406353	-0.256140	0.147211	-0.864638
38357		5.399337	-0.453415	8.062010	-0.000344	0.000839	0.003006	-0.641846	-0.464600	-0.126953	-0.406420	-0.256064	0.147194	-0.864631
38358		5.414372	-0.461603	8.058506	0.000473	-0.005100	0.002243	-0.633789	-0.469727	-0.123535	-0.406395	-0.256078	0.147166	-0.864644
38359		5.448580	-0.442005	8.042426	0.002604	-0.005569	0.001175	-0.636475	-0.462158	-0.127197	-0.406415	-0.256120	0.147097	-0.864634
38360		5.445558	-0.431994	8.057974	-0.000148	-0.005246	0.002259	-0.640137	-0.460938	-0.133545	-0.406394	-0.256130	0.147079	-0.864644
38361		5.447056	-0.435398	8.035438	-0.002246	-0.007535	0.002864	-0.638672	-0.464844	-0.134766	-0.406382	-0.256130	0.147132	-0.864641
38362		5.426090	-0.456183	8.041240	-0.000442	-0.006698	0.002034	-0.636963	-0.466309	-0.126221	-0.406412	-0.256127	0.147164	-0.864622
38363		5.449520	-0.433825	8.055197	-0.001890	-0.006485	0.003869	-0.630859	-0.462158	-0.134277	-0.406398	-0.256142	0.147171	-0.864623
38364		5.442369	-0.439251	8.054534	-0.003108	-0.009767	0.004820	-0.637695	-0.465576	-0.126221	-0.406405	-0.256155	0.147256	-0.864601
38365		5.448506	-0.450432	8.036795	-0.002712	-0.011241	0.003978	-0.643799	-0.464600	-0.129883	-0.406378	-0.256217	0.147297	-0.864589
38366		5.433380	-0.460302	8.036081	-0.003696	-0.012670	0.004370	-0.634521	-0.465820	-0.126465	-0.406340	-0.256275	0.147375	-0.864576
38367		5.444549	-0.454342	8.055409	-0.002678	-0.013999	0.003512	-0.635986	-0.466309	-0.129639	-0.406328	-0.256366	0.147431	-0.864545
38368		5.454446	-0.451822	8.017808	-0.003988	-0.014122	0.004145	-0.637451	-0.464111	-0.120117	-0.406331	-0.256439	0.147522	-0.864507
38369		5.473570	-0.462555	8.026206	0.000443	-0.012805	0.000664	-0.640625	-0.466064	-0.127441	-0.406289	-0.256561	0.147494	-0.864495
38370		5.456814	-0.447757	8.022912	0.000273	-0.004597	0.004044	-0.639160	-0.471680	-0.132568	-0.406269	-0.256560	0.147479	-0.864507
38371		5.473348	-0.455143	8.054630	0.002153	0.001654	0.001558	-0.639404	-0.456543	-0.131104	-0.406358	-0.256486	0.147434	-0.864495
38372		5.469291	-0.450525	8.027882	0.002706	0.001967	0.002143	-0.641357	-0.466309	-0.127197	-0.406307	-0.256415	0.147371	-0.864551
38373		5.433407	-0.444027	8.026702	0.001262	-0.002935	0.002268	-0.638672	-0.468018	-0.132812	-0.406304	-0.256406	0.147328	-0.864562
38374		5.463311	-0.412197	8.048486	-0.001074	-0.007310	0.004814	-0.637939	-0.462158	-0.125732	-0.406326	-0.256406	0.147374	-0.864544
38375		5.452412	-0.458350	8.013605	-0.002446	-0.007031	0.004666	-0.636475	-0.465576	-0.120850	-0.406271	-0.256423	0.147392	-0.864562
38376		5.453591	-0.456384	8.034291	-0.000446	-0.006931	0.003414	-0.633789	-0.458496	-0.129639	-0.406233	-0.256470	0.147357	-0.864571
38377		5.462340	-0.428539	8.030041	0.002635	-0.003214	0.002414	-0.631348	-0.468994	-0.121582	-0.406199	-0.256460	0.147316	-0.864597
38378		5.468649	-0.441008	8.026947	-0.001746	-0.001472	0.002995	-0.632324	-0.463867	-0.119141	-0.406231	-0.256439	0.147273	-0.864596
38379		5.462487	-0.427095	8.051408	-0.004036	0.002325	0.004352	-0.637695	-0.459961	-0.121826	-0.406201	-0.256374	0.147225	-0.864638
38380		5.454272	-0.459137	8.033672	-0.002301	0.003330	0.004123	-0.635742	-0.466064	-0.118164	-0.406132	-0.256296	0.147164	-0.864704
38381		5.439147	-0.452016	8.037249	-0.000467	0.001408	0.002826	-0.638916	-0.466064	-0.122070	-0.406102	-0.256268	0.147068	-0.864742
38382		5.450586	-0.431729	8.039146	-0.000830	0.000125	0.003203	-0.633545	-0.468262	-0.133301	-0.406076	-0.256235	0.147006	-0.864775
38383		5.456144	-0.444575	8.036537	-0.001414	0.002570	0.003084	-0.633545	-0.458496	-0.123779	-0.406165	-0.256126	0.147006	-0.864765
38384		5.455385	-0.445377	8.037009	-0.001937	0.004613	0.003746	-0.628662	-0.461670	-0.124512	-0.406114	-0.256030	0.146945	-0.864828
38385		5.440353	-0.461615	8.044267	0.001705	0.008876	0.001949	-0.635986	-0.458740	-0.128418	-0.406130	-0.255906	0.146823	-0.864878
38386		5.426420	-0.458574	8.040300	0.002191	0.004242	0.001423	-0.642334	-0.461670	-0.123779	-0.406110	-0.255821	0.146737	-0.864927
38387		5.435671	-0.432833	8.050494	-0.000566	-0.000780	0.002180	-0.636230	-0.468506	-0.137451	-0.406048	-0.255797	0.146677	-0.864973
38388		5.414755	-0.435104	8.045766	-0.003846	-0.003759	0.003600	-0.637207	-0.462891	-0.125977	-0.406145	-0.255726	0.146761	-0.864935
38389		5.435123	-0.430264	8.057520	-0.005138	-0.007106	0.006533	-0.638916	-0.459717	-0.124023	-0.406084	-0.255730	0.146811	-0.864954
38390		5.441193	-0.423382	8.029243	-0.004054	-0.003489	0.006786	-0.633545	-0.458252	-0.131836	-0.405978	-0.255708	0.146819	-0.865008
38391		5.429034	-0.462006	8.059719	-0.004551	-0.004437	0.008364	-0.633789	-0.456787	-0.130371	-0.405922	-0.255653	0.146895	-0.865038
38392		5.417064	-0.460853	8.054324	-0.003555	-0.002541	0.005207	-0.642090	-0.458252	-0.122803	-0.405878	-0.255596	0.146930	-0.865070
38393		5.422684	-0.450350	8.047937	-0.001521	-0.004966	0.002106	-0.639160	-0.458252	-0.130615	-0.405776	-0.255619	0.146891	-0.865117
38394		5.431657	-0.467893	8.036226	0.000798	-0.006408	0.001995	-0.635986	-0.457520	-0.125244	-0.405736	-0.255632	0.146887	-0.865133
38395		5.424014	-0.472092	8.035975	0.001788	-0.004746	0.000220	-0.635254	-0.461670	-0.129639	-0.405690	-0.255658	0.146826	-0.865157
38396		5.434659	-0.448462	8.023742	0.003529	-0.003509	-0.001392	-0.636475	-0.469238	-0.124756	-0.405728	-0.255663	0.146765	-0.865148
38397		5.426755	-0.451935	8.023709	0.003166	-0.004792	-0.001015	-0.639893	-0.462646	-0.134521	-0.405772	-0.255707	0.146681	-0.865129
38398		5.448954	-0.449572	8.027557	0.004218	-0.003532	-0.002010	-0.634766	-0.460449	-0.123779	-0.405827	-0.255695	0.146639	-0.865113
38399		5.436839	-0.440361	8.065512	0.001660	-0.004177	0.000040	-0.636475	-0.457275	-0.126221	-0.405801	-0.255723	0.146568	-0.865130
38400		5.448932	-0.441083	8.055958	-0.000481	-0.009287	0.002164	-0.637451	-0.461914	-0.127197	-0.405732	-0.255778	0.146569	-0.865145
38401		5.430999	-0.445524	8.064002	-0.003197	-0.006604	0.004501	-0.632812	-0.459717	-0.125977	-0.405691	-0.255783	0.146598	-0.865158
38402		5.445305	-0.454596	8.024552	0.001192	-0.007882	0.001152	-0.635254	-0.459229	-0.127197	-0.405674	-0.255833	0.146573	-0.865156
38403		5.426829	-0.455098	8.054597	0.002219	-0.003631	-0.000759	-0.630859	-0.464111	-0.130127	-0.405673	-0.255840	0.146516	-0.865164
38404		5.434489	-0.442472	8.083231	0.001627	-0.006533	-0.001208	-0.637695	-0.468018	-0.130371	-0.405764	-0.255861	0.146503	-0.865117
38405		5.437097	-0.426295	8.049406	0.000509	-0.007625	0.000388	-0.637695	-0.459961	-0.126221	-0.405825	-0.255890	0.146506	-0.865079
38406		5.446359	-0.440913	8.059056	-0.000804	-0.007980	0.002405	-0.634766	-0.469727	-0.130127	-0.405769	-0.255929	0.146504	-0.865094
38407		5.439161	-0.448921	8.036890	-0.002577	-0.006693	0.005867	-0.636475	-0.466797	-0.128174	-0.405816	-0.255922	0.146556	-0.865066
38408		5.433919	-0.456518	8.049734	-0.002281	-0.010122	0.002995	-0.637695	-0.458252	-0.131592	-0.405837	-0.255967	0.146599	-0.865035
38409		5.426279	-0.434979	8.067340	-0.001200	-0.011619	0.001533	-0.631348	-0.458984	-0.131592	-0.405810	-0.256017	0.146653	-0.865024
38410		5.465804	-0.426434	8.033786	-0.003008	-0.012922	0.005129	-0.631836	-0.464111	-0.125000	-0.405795	-0.256062	0.146752	-0.865001
38411		5.430215	-0.461409	8.031908	-0.003459	-0.010812	0.003809	-0.634521	-0.460938	-0.126709	-0.405797	-0.256120	0.146798	-0.864975
38412		5.440870	-0.454861	8.051666	0.000279	-0.009244	-0.000442	-0.634033	-0.465820	-0.132568	-0.405800	-0.256179	0.146789	-0.864957
38413		5.448741	-0.421879	8.054867	0.000599	-0.011018	0.002080	-0.637695	-0.466309	-0.123535	-0.405867	-0.256223	0.146838	-0.864905
38414		5.439586	-0.446240	8.029754	-0.004115	-0.013546	0.003960	-0.635498	-0.466064	-0.131592	-0.405841	-0.256316	0.146893	-0.864880
38415		5.465540	-0.450839	8.024057	-0.000941	-0.012992	0.003270	-0.643799	-0.463623	-0.123291	-0.405883	-0.256377	0.146966	-0.864830
38416		5.450601	-0.457111	8.044955	-0.001362	-0.013405	0.000101	-0.640137	-0.468994	-0.125977	-0.405828	-0.256491	0.146971	-0.864821
38417		5.446641	-0.421601	8.042796	-0.001789	-0.014520	0.001078	-0.640137	-0.461182	-0.130615	-0.405858	-0.256598	0.147015	-0.864768
38418		5.451605	-0.472290	8.025159	-0.000844	-0.015917	0.002199	-0.631348	-0.464600	-0.134766	-0.405824	-0.256696	0.147087	-0.864742
38419		5.460217	-0.439523	8.027844	0.000179	-0.011665	0.000289	-0.631104	-0.462402	-0.124268	-0.405935	-0.256732	0.147160	-0.864667
38420		5.453844	-0.440703	8.048420	0.002369	-0.012305	-0.001391	-0.636719	-0.457520	-0.121582	-0.405956	-0.256844	0.147134	-0.864628
38421		5.434294	-0.462913	8.031865	0.001843	-0.015374	-0.002444	-0.638916	-0.465576	-0.123779	-0.405879	-0.257003	0.147100	-0.864623
38422		5.466793	-0.432820	8.030296	0.001678	-0.017394	-0.002491	-0.628418	-0.472412	-0.132812	-0.405892	-0.257171	0.147100	-0.864567
38423		5.463623	-0.438712	8.041893	0.001318	-0.018677	-0.002115	-0.635498	-0.463867	-0.124756	-0.406105	-0.257298	0.147190	-0.864414
38424		5.477038	-0.415355	8.027639	0.000373	-0.017749	-0.000472	-0.639404	-0.461914	-0.126709	-0.406109	-0.257451	0.147223	-0.864361
38425		5.462285	-0.445461	8.015766	-0.001164	-0.019488	-0.000661	-0.640137	-0.459473	-0.115967	-0.406085	-0.257605	0.147289	-0.864315
38426		5.462621	-0.435493	8.029232	0.000175	-0.022358	-0.000388	-0.630859	-0.468994	-0.126465	-0.405945	-0.257853	0.147284	-0.864308
38427		5.485358	-0.450891	8.028215	-0.002337	-0.020412	0.001538	-0.639648	-0.468018	-0.125000	-0.406035	-0.258002	0.147393	-0.864202
38428		5.490125	-0.432897	8.014358	-0.002365	-0.017654	0.002006	-0.637695	-0.462646	-0.123291	-0.406055	-0.258130	0.147473	-0.864141
38429		5.494237	-0.457150	8.015216	-0.000597	-0.014063	0.001637	-0.636475	-0.461426	-0.118408	-0.406016	-0.258237	0.147500	-0.864123
38430		5.499598	-0.441093	8.015800	-0.001508	-0.010311	0.001769	-0.632812	-0.462402	-0.126709	-0.405946	-0.258323	0.147487	-0.864132
38431		5.482962	-0.426392	8.012643	-0.000101	-0.008002	0.001777	-0.639893	-0.460205	-0.119385	-0.405969	-0.258344	0.147507	-0.864112
38432		5.511507	-0.437402	8.013015	-0.000002	-0.005581	0.001043	-0.640381	-0.472168	-0.132324	-0.405883	-0.258383	0.147454	-0.864150
38433		5.501503	-0.439483	7.999609	0.001701	-0.001821	0.001276	-0.629639	-0.463135	-0.120361	-0.406024	-0.258319	0.147465	-0.864101
38434		5.476386	-0.430594	8.011745	0.002421	0.000745	0.000523	-0.638672	-0.472656	-0.123535	-0.406049	-0.258295	0.147371	-0.864112
38435		5.481243	-0.419152	8.005837	-0.001173	-0.000924	0.002201	-0.638428	-0.462402	-0.122070	-0.406149	-0.258253	0.147355	-0.864080
38436		5.501883	-0.437228	8.021027	-0.002413	-0.001447	0.003622	-0.641846	-0.469482	-0.129395	-0.406102	-0.258216	0.147336	-0.864117
38437		5.482474	-0.444455	8.008608	-0.000875	0.000292	0.003808	-0.644287	-0.465332	-0.131348	-0.406170	-0.258128	0.147349	-0.864109
38438		5.460171	-0.420188	8.023046	-0.002674	-0.000308	0.003265	-0.637207	-0.468750	-0.128906	-0.406196	-0.258028	0.147387	-0.864120
38439		5.484715	-0.446001	8.043512	-0.002963	-0.002461	0.007185	-0.639648	-0.465576	-0.119141	-0.406243	-0.257955	0.147444	-0.864110
38440		5.472249	-0.446915	8.016890	-0.000616	-0.000612	0.002783	-0.638672	-0.459473	-0.119873	-0.406220	-0.257938	0.147383	-0.864136
38441		5.493588	-0.446025	8.021050	-0.000320	0.000838	0.003009	-0.631104	-0.464844	-0.125488	-0.406122	-0.257903	0.147307	-0.864206
38442		5.491178	-0.441333	8.029548	0.002203	0.003769	0.004181	-0.637451	-0.467529	-0.124268	-0.406156	-0.257814	0.147243	-0.864227
38443		5.482506	-0.427257	8.019506	-0.000610	0.004734	0.003122	-0.640869	-0.462891	-0.120117	-0.406206	-0.257710	0.147192	-0.864244
38444		5.500563	-0.424352	8.011067	-0.000896	0.008396	0.004617	-0.643066	-0.463867	-0.126465	-0.406141	-0.257588	0.147093	-0.864327
38445		5.449159	-0.434444	8.018028	-0.000533	0.009445	0.005622	-0.638916	-0.459717	-0.128662	-0.406107	-0.257420	0.147028	-0.864404
38446		5.475768	-0.380126	8.038298	-0.005991	0.007346	0.007356	-0.634766	-0.453857	-0.124023	-0.406048	-0.257232	0.147048	-0.864485
38447		5.474144	-0.472976	8.024286	-0.007528	0.005373	0.008551	-0.638428	-0.465820	-0.125732	-0.405893	-0.257083	0.147059	-0.864600
38448		5.425113	-0.489380	8.022634	-0.003375	0.007352	0.007457	-0.639648	-0.468506	-0.127686	-0.405888	-0.256928	0.147038	-0.864652
38449		5.420595	-0.479708	8.039426	0.004180	-0.000779	-0.001563	-0.632568	-0.461670	-0.132812	-0.405981	-0.256905	0.146962	-0.864628
38450		5.456317	-0.461112	8.036752	0.006161	-0.005795	-0.004545	-0.642090	-0.461670	-0.125977	-0.406079	-0.256921	0.146911	-0.864586
38451		5.463310	-0.429170	8.018983	0.006526	-0.004981	-0.002158	-0.636230	-0.459229	-0.133301	-0.406046	-0.256967	0.146806	-0.864605
38452		5.478672	-0.432772	8.036784	0.005254	-0.002277	-0.003031	-0.638672	-0.460449	-0.120117	-0.406084	-0.256935	0.146748	-0.864607
38453		5.476461	-0.403085	8.041536	0.002839	-0.003723	0.000590	-0.636719	-0.465332	-0.126221	-0.405996	-0.256977	0.146646	-0.864653
38454		5.467116	-0.428700	8.031366	0.000820	-0.001061	0.002321	-0.642578	-0.464111	-0.114258	-0.406021	-0.256940	0.146609	-0.864659
38455		5.453749	-0.444557	8.037659	0.000391	-0.001708	0.000535	-0.641357	-0.459229	-0.123291	-0.405926	-0.256983	0.146485	-0.864711
38456		5.446478	-0.430064	8.026689	0.001403	-0.003273	0.001051	-0.631592	-0.457520	-0.126465	-0.405829	-0.256994	0.146416	-0.864765
38457		5.454260	-0.420779	8.033644	0.000124	-0.006150	0.001222	-0.631104	-0.458984	-0.136719	-0.405805	-0.257005	0.146409	-0.864775
38458		5.470924	-0.452204	8.032459	0.002737	-0.005910	-0.000059	-0.639404	-0.464355	-0.117432	-0.405890	-0.256966	0.146444	-0.864740
38459		5.456712	-0.419871	8.032026	0.002929	-0.006414	-0.001864	-0.632568	-0.470947	-0.119385	-0.405844	-0.257059	0.146332	-0.864754
38460		5.477205	-0.415603	8.021992	0.002346	-0.004202	-0.000595	-0.632812	-0.471436	-0.134521	-0.405934	-0.257108	0.146250	-0.864710
38461		5.449886	-0.422908	8.031367	0.002346	-0.004202	-0.000595	-0.637451	-0.464844	-0.130371	-0.406143	-0.257066	0.146276	-0.864620
38462		5.454662	-0.429470	8.036116	0.002474	-0.004537	-0.001798	-0.636230	-0.465332	-0.125244	-0.406215	-0.257057	0.146253	-0.864593
38463		5.486964	-0.402192	8.049372	-0.001181	-0.006269	0.001863	-0.630127	-0.468018	-0.133545	-0.406233	-0.257071	0.146258	-0.864580
38464		5.457051	-0.430010	8.034465	-0.002357	-0.006959	0.002683	-0.631836	-0.459961	-0.125732	-0.406378	-0.257034	0.146349	-0.864507
38465		5.471896	-0.415054	8.027093	-0.002060	-0.005508	0.002908	-0.636719	-0.465332	-0.134033	-0.406339	-0.257030	0.146359	-0.864525
38466		5.446116	-0.402360	8.046531	-0.003469	-0.007815	0.002900	-0.639404	-0.467529	-0.128662	-0.406405	-0.256996	0.146457	-0.864487
38467		5.463043	-0.438068	8.023344	-0.003462	-0.008283	0.005663	-0.632812	-0.465332	-0.118896	-0.406422	-0.256994	0.146532	-0.864467
38468		5.460836	-0.432164	8.016814	-0.002583	-0.009044	0.004618	-0.638428	-0.465088	-0.120605	-0.406392	-0.257063	0.146537	-0.864460
38469		5.455701	-0.439681	8.029735	-0.001601	-0.007618	0.004221	-0.631348	-0.465332	-0.124756	-0.406342	-0.257113	0.146530	-0.864470
38470		5.472907	-0.426919	8.035596	-0.001343	-0.008523	0.003196	-0.635254	-0.471924	-0.128906	-0.406372	-0.257149	0.146555	-0.864441
38471		5.466612	-0.415637	8.002205	0.001138	-0.007715	0.001734	-0.637695	-0.468018	-0.122314	-0.406514	-0.257166	0.146582	-0.864364
38472		5.466792	-0.431810	8.034364	-0.000091	-0.002890	0.003495	-0.639404	-0.468506	-0.120361	-0.406540	-0.257161	0.146553	-0.864359
38473		5.470931	-0.442311	8.017735	-0.000482	-0.001181	0.002961	-0.636963	-0.461914	-0.123779	-0.406566	-0.257147	0.146507	-0.864358
38474		5.454662	-0.429987	8.029244	-0.001297	-0.000587	0.003405	-0.633301	-0.466309	-0.130127	-0.406515	-0.257105	0.146473	-0.864400
38475		5.469409	-0.438233	8.025613	0.002327	-0.001914	0.002635	-0.637695	-0.468018	-0.121826	-0.406582	-0.257059	0.146457	-0.864385
38476		5.457115	-0.435159	8.020672	0.001701	-0.001823	0.001274	-0.638184	-0.463135	-0.124023	-0.406628	-0.257058	0.146393	-0.864375
38477		5.466272	-0.427657	8.041566	0.002872	-0.000901	-0.000928	-0.635254	-0.464111	-0.125488	-0.406624	-0.257047	0.146306	-0.864395
38478		5.469368	-0.413471	8.022034	0.001634	-0.001422	0.000494	-0.636475	-0.462158	-0.122559	-0.406644	-0.257024	0.146252	-0.864401
38479		5.459112	-0.412962	8.030540	-0.002089	-0.002516	0.001997	-0.634277	-0.465576	-0.127686	-0.406603	-0.257009	0.146224	-0.864429
38480		5.461756	-0.415911	8.043555	-0.001761	-0.004057	0.003133	-0.634277	-0.466797	-0.122803	-0.406641	-0.256979	0.146247	-0.864417
38481		5.469290	-0.407751	8.050623	-0.004075	-0.002845	0.004642	-0.630371	-0.466309	-0.129395	-0.406665	-0.256950	0.146265	-0.864411
38482		5.455412	-0.446605	8.046030	-0.005223	-0.006290	0.004991	-0.640381	-0.462646	-0.127197	-0.406729	-0.256913	0.146356	-0.864377
38483		5.452555	-0.440691	8.039952	-0.001693	-0.004459	0.003912	-0.639404	-0.467285	-0.124756	-0.406678	-0.256892	0.146367	-0.864405
38484		5.461278	-0.413581	8.035678	-0.001693	-0.004459	0.003911	-0.645508	-0.468506	-0.120361	-0.406697	-0.256882	0.146377	-0.864397
38485		5.441868	-0.439901	8.033806	-0.004403	-0.007118	0.005928	-0.643555	-0.463867	-0.124023	-0.406672	-0.256908	0.146411	-0.864396
38486		5.458815	-0.427987	8.039801	-0.003912	-0.006405	0.005729	-0.626465	-0.468750	-0.124756	-0.406601	-0.256910	0.146446	-0.864423
38487		5.468780	-0.425303	8.038289	-0.004601	-0.006146	0.004970	-0.635254	-0.468506	-0.121826	-0.406697	-0.256902	0.146509	-0.864369
38488		5.450503	-0.430384	8.046851	-0.004109	-0.005434	0.004772	-0.635986	-0.464600	-0.122070	-0.406742	-0.256905	0.146542	-0.864342
38489		5.471113	-0.428097	8.036553	-0.002350	-0.007191	0.004060	-0.638916	-0.462646	-0.130859	-0.406717	-0.256938	0.146552	-0.864342
38490		5.470273	-0.427107	8.022201	-0.003550	-0.005123	0.005353	-0.636230	-0.471680	-0.131836	-0.406685	-0.256889	0.146614	-0.864361
38491		5.460515	-0.427741	8.030332	-0.002500	-0.004100	0.005736	-0.642822	-0.456055	-0.121582	-0.406819	-0.256824	0.146694	-0.864304
38492		5.462989	-0.434008	8.021664	-0.002202	-0.002650	0.005961	-0.627930	-0.465576	-0.124512	-0.406607	-0.256813	0.146656	-0.864413
38493		5.472929	-0.454494	8.023806	-0.001225	-0.000990	0.004184	-0.637451	-0.455566	-0.126709	-0.406652	-0.256771	0.146642	-0.864407
38494		5.450618	-0.432581	8.016709	0.001620	0.000864	0.003726	-0.641357	-0.464111	-0.125488	-0.406495	-0.256717	0.146567	-0.864509
38495		5.456384	-0.441967	8.035587	0.002491	0.000337	0.001299	-0.633545	-0.466309	-0.120605	-0.406489	-0.256680	0.146494	-0.864535
38496		5.466586	-0.416212	8.045243	0.000036	-0.003226	0.002289	-0.632568	-0.475342	-0.125488	-0.406518	-0.256695	0.146449	-0.864525
38497		5.461999	-0.430983	8.029150	-0.001033	-0.001727	0.003760	-0.639160	-0.468750	-0.125488	-0.406718	-0.256653	0.146468	-0.864440
38498		5.464346	-0.436365	8.020612	0.001409	-0.003510	0.002425	-0.638184	-0.458252	-0.122070	-0.406788	-0.256647	0.146446	-0.864413
38499		5.454399	-0.432875	8.050731	0.002266	-0.001750	0.003232	-0.636963	-0.471436	-0.125732	-0.406649	-0.256651	0.146356	-0.864492
38500		5.459636	-0.421676	8.044563	-0.000281	-0.002153	0.003917	-0.634521	-0.463867	-0.127930	-0.406765	-0.256617	0.146359	-0.864447
38501		5.457776	-0.419675	8.030958	0.002497	0.000102	0.002679	-0.635010	-0.461182	-0.125977	-0.406772	-0.256567	0.146306	-0.864468
38502		5.476110	-0.434707	8.032794	0.001870	0.000194	0.001319	-0.632812	-0.472900	-0.118408	-0.406738	-0.256528	0.146235	-0.864507
38503		5.462962	-0.405308	8.046626	-0.000225	-0.002086	0.001934	-0.635986	-0.460938	-0.119385	-0.406884	-0.256540	0.146196	-0.864442
38504		5.460520	-0.422339	8.043928	-0.001760	-0.004056	0.003131	-0.642090	-0.468994	-0.132324	-0.406797	-0.256564	0.146154	-0.864483
38505		5.450424	-0.425166	8.030550	-0.002580	-0.003227	0.002195	-0.635010	-0.467041	-0.127441	-0.406908	-0.256494	0.146212	-0.864441
38506		5.461945	-0.424032	8.042872	-0.001754	-0.004290	0.004511	-0.632080	-0.474365	-0.118652	-0.406953	-0.256468	0.146239	-0.864423
38507		5.444890	-0.436093	8.021956	-0.002026	-0.002682	0.001395	-0.636963	-0.461670	-0.121582	-0.407146	-0.256475	0.146230	-0.864332
38508		5.447770	-0.438822	8.034833	-0.001252	-0.005866	0.001078	-0.638428	-0.465088	-0.124023	-0.407095	-0.256512	0.146200	-0.864350
38509		5.448091	-0.412644	8.052795	0.000228	-0.003963	0.001864	-0.636475	-0.463867	-0.123535	-0.407107	-0.256516	0.146173	-0.864348
38510		5.444532	-0.450598	8.039615	0.001334	-0.002874	0.000264	-0.641113	-0.465088	-0.121094	-0.407111	-0.256522	0.146115	-0.864354
38511		5.455176	-0.424452	8.049007	0.002899	-0.003895	-0.000024	-0.633057	-0.464844	-0.120361	-0.407119	-0.256558	0.146038	-0.864352
38512		5.438650	-0.432625	8.049589	0.000804	-0.006175	0.000591	-0.639160	-0.464600	-0.130859	-0.407127	-0.256615	0.145990	-0.864340
38513		5.463390	-0.436356	8.044444	0.001332	-0.008688	0.002682	-0.641357	-0.468262	-0.124756	-0.407129	-0.256635	0.146012	-0.864329
38514		5.457038	-0.421906	8.032897	0.000674	-0.005605	0.000414	-0.638672	-0.466797	-0.124512	-0.407207	-0.256652	0.146001	-0.864289
38515		5.447545	-0.420904	8.040968	0.001979	-0.005488	-0.000230	-0.633545	-0.470703	-0.125977	-0.407265	-0.256680	0.145966	-0.864260
38516		5.461365	-0.423737	8.044846	0.000122	-0.006150	0.001214	-0.641602	-0.465820	-0.122070	-0.407395	-0.256694	0.145977	-0.864192
38517		5.449738	-0.421062	8.039474	-0.001013	-0.004248	0.001906	-0.635254	-0.460938	-0.122314	-0.407415	-0.256701	0.145963	-0.864183
38518		5.432791	-0.432534	8.018522	0.000284	-0.003896	-0.000118	-0.637451	-0.469482	-0.128662	-0.407359	-0.256721	0.145904	-0.864213
38519		5.439127	-0.415319	8.055241	0.001488	-0.006200	-0.000032	-0.638428	-0.467529	-0.124756	-0.407478	-0.256728	0.145908	-0.864154
38520		5.452966	-0.420985	8.037289	0.000514	-0.007859	0.001745	-0.636719	-0.466797	-0.125244	-0.407529	-0.256767	0.145912	-0.864118
38521		5.449228	-0.435395	8.020618	-0.000567	-0.005890	0.000456	-0.638916	-0.461914	-0.132080	-0.407588	-0.256781	0.145913	-0.864086
38522		5.453457	-0.418720	8.022085	0.002731	-0.005915	-0.000076	-0.632080	-0.462402	-0.128174	-0.407560	-0.256778	0.145890	-0.864104
38523		5.454629	-0.415550	8.043127	0.001465	-0.003443	0.000440	-0.633545	-0.464600	-0.127930	-0.407537	-0.256766	0.145849	-0.864126
38524		5.455271	-0.415521	8.042694	0.000660	-0.003083	0.002267	-0.639160	-0.468506	-0.131104	-0.407541	-0.256741	0.145829	-0.864134
38525		5.452751	-0.431977	8.040079	0.001204	-0.002304	0.000086	-0.643555	-0.469971	-0.124512	-0.407650	-0.256690	0.145827	-0.864098
38526		5.443906	-0.412519	8.037171	-0.000068	-0.005412	0.001638	-0.635010	-0.470703	-0.118164	-0.407754	-0.256695	0.145837	-0.864046
38527		5.448928	-0.420013	8.041679	0.000692	-0.006074	0.003174	-0.636475	-0.472656	-0.123047	-0.407841	-0.256748	0.145815	-0.863993
38528		5.465685	-0.409630	8.026025	-0.000988	-0.007004	0.001434	-0.632080	-0.464600	-0.130859	-0.408004	-0.256774	0.145844	-0.863904
38529		5.446684	-0.432291	8.045785	0.000141	-0.006618	0.003974	-0.638672	-0.464355	-0.126709	-0.407971	-0.256769	0.145860	-0.863918
38530		5.470269	-0.412770	8.037740	-0.001380	-0.005295	0.000902	-0.635986	-0.469727	-0.126221	-0.407978	-0.256764	0.145866	-0.863915
38531		5.453542	-0.421749	8.038460	-0.001333	-0.002940	0.002154	-0.637939	-0.468262	-0.130859	-0.408087	-0.256729	0.145881	-0.863871
38532		5.454510	-0.419405	8.059614	0.000301	-0.004365	0.002642	-0.636719	-0.464355	-0.135986	-0.408160	-0.256693	0.145904	-0.863844
38533		5.446704	-0.423921	8.059599	-0.000068	-0.005412	0.001637	-0.634277	-0.465576	-0.125244	-0.408158	-0.256647	0.145933	-0.863853
38534		5.450472	-0.410516	8.039521	-0.000950	-0.004415	0.001305	-0.637451	-0.465088	-0.129883	-0.408177	-0.256645	0.145924	-0.863847
38535		5.452867	-0.418818	8.009073	-0.001693	-0.004222	0.002530	-0.635986	-0.469971	-0.131104	-0.408185	-0.256608	0.145946	-0.863850
38536		5.453924	-0.416999	8.030145	-0.003117	-0.004004	0.004379	-0.630615	-0.469482	-0.122314	-0.408285	-0.256546	0.146015	-0.863810
38537		5.444050	-0.417099	8.038463	0.000050	-0.003460	0.003668	-0.635742	-0.473389	-0.125244	-0.408356	-0.256549	0.145999	-0.863778
38538		5.454387	-0.436869	8.040318	0.000293	-0.004130	0.001261	-0.635742	-0.468262	-0.126465	-0.408554	-0.256538	0.146015	-0.863685
38539		5.443936	-0.412636	8.045477	-0.000689	-0.005555	0.001658	-0.645996	-0.453125	-0.134521	-0.408630	-0.256537	0.146029	-0.863647
38540		5.457649	-0.419042	8.027508	-0.002151	-0.007925	0.003635	-0.636719	-0.474854	-0.128906	-0.408351	-0.256522	0.146044	-0.863780
38541		5.455704	-0.409964	8.042709	-0.001890	-0.009064	0.003989	-0.639648	-0.460205	-0.130127	-0.408553	-0.256526	0.146141	-0.863667
38542		5.452185	-0.425154	8.025821	-0.002842	-0.007665	0.002878	-0.633057	-0.459473	-0.123535	-0.408439	-0.256525	0.146170	-0.863717
38543		5.453567	-0.426084	8.024832	-0.001851	-0.006476	0.003861	-0.639648	-0.466064	-0.119629	-0.408282	-0.256557	0.146148	-0.863785
38544		5.459511	-0.415554	8.018119	-0.002303	-0.004599	0.003932	-0.635010	-0.474121	-0.131348	-0.408293	-0.256568	0.146149	-0.863777
38545		5.438455	-0.433521	8.046278	-0.000548	-0.006359	0.003214	-0.635254	-0.461426	-0.126221	-0.408485	-0.256542	0.146218	-0.863682
38546		5.448387	-0.429958	8.044792	-0.002051	-0.005503	0.002905	-0.642334	-0.466553	-0.121582	-0.408392	-0.256544	0.146214	-0.863726
38547		5.452491	-0.416778	8.024459	-0.000106	-0.008001	0.001761	-0.639893	-0.465088	-0.112549	-0.408435	-0.256593	0.146217	-0.863691
38548		5.470565	-0.427437	8.033288	-0.000977	-0.007238	0.002811	-0.632324	-0.462891	-0.126221	-0.408429	-0.256678	0.146185	-0.863674
38549		5.469811	-0.422943	8.040749	-0.000579	-0.003368	0.002308	-0.635986	-0.463379	-0.127930	-0.408370	-0.256666	0.146156	-0.863710
38550		5.449225	-0.424653	8.036210	-0.000116	-0.005479	0.003616	-0.634277	-0.462646	-0.122803	-0.408316	-0.256662	0.146153	-0.863737
38551		5.455495	-0.410966	8.051172	-0.001369	-0.005529	0.002281	-0.641357	-0.466309	-0.128662	-0.408257	-0.256684	0.146134	-0.863762
38552		5.465146	-0.410075	8.027997	-0.001108	-0.006668	0.002633	-0.639404	-0.469482	-0.131592	-0.408292	-0.256677	0.146169	-0.863742
38553		5.451676	-0.445293	8.044990	-0.002169	-0.005168	0.004108	-0.636230	-0.463867	-0.124756	-0.408385	-0.256627	0.146237	-0.863701
38554		5.458953	-0.413131	8.048717	-0.001238	-0.006098	0.002457	-0.642578	-0.465576	-0.131348	-0.408356	-0.256643	0.146235	-0.863710
38555		5.453075	-0.423220	8.040395	-0.002790	-0.005310	0.004131	-0.635010	-0.462891	-0.122559	-0.408372	-0.256595	0.146295	-0.863706
38556		5.453938	-0.424265	8.039755	-0.001869	-0.003719	0.004335	-0.642090	-0.464600	-0.130371	-0.408304	-0.256592	0.146280	-0.863742
38557		5.454848	-0.425134	8.039092	-0.001357	-0.005763	0.003660	-0.639648	-0.470947	-0.124756	-0.408298	-0.256565	0.146315	-0.863747
38558		5.464126	-0.424353	8.016144	-0.000697	-0.003033	0.003511	-0.643799	-0.459961	-0.122314	-0.408425	-0.256535	0.146334	-0.863693
38559		5.456190	-0.426496	8.038109	-0.000887	-0.002295	0.003936	-0.645020	-0.462891	-0.122803	-0.408319	-0.256517	0.146298	-0.863754
38560		5.449852	-0.436361	8.030105	-0.000938	-0.004649	0.002682	-0.639893	-0.467529	-0.127930	-0.408291	-0.256519	0.146288	-0.863769
38561		5.451118	-0.434196	8.051111	-0.002192	-0.004698	0.001348	-0.631836	-0.463867	-0.119141	-0.408374	-0.256492	0.146321	-0.863732
38562		5.468556	-0.402578	8.046258	-0.000206	-0.002321	0.003311	-0.629395	-0.456055	-0.131836	-0.408326	-0.256504	0.146265	-0.863760
38563		5.445774	-0.426143	8.031853	-0.003221	0.001913	0.004554	-0.634277	-0.467529	-0.127686	-0.408122	-0.256401	0.146231	-0.863893
38564		5.437266	-0.428658	8.054194	-0.001076	-0.001558	0.004362	-0.632324	-0.463623	-0.130371	-0.408165	-0.256348	0.146238	-0.863887
38565		5.467632	-0.426752	8.035380	-0.001187	-0.003744	0.003709	-0.627441	-0.465088	-0.125732	-0.408132	-0.256313	0.146245	-0.863912
38566		5.439225	-0.414268	8.020352	-0.001547	-0.005026	0.004084	-0.632324	-0.468506	-0.135010	-0.408113	-0.256315	0.146247	-0.863920
38567		5.453919	-0.439369	8.048934	-0.003731	-0.004143	0.004402	-0.645020	-0.464111	-0.115967	-0.408191	-0.256240	0.146327	-0.863892
38568		5.434266	-0.423096	8.033225	-0.001724	-0.004524	0.005889	-0.639404	-0.460938	-0.127441	-0.408140	-0.256268	0.146310	-0.863911
38569		5.432475	-0.437797	8.051921	-0.002050	-0.005502	0.002903	-0.639404	-0.468018	-0.123535	-0.408067	-0.256260	0.146317	-0.863946
38570		5.466680	-0.419646	8.034848	-0.001764	-0.007113	0.006014	-0.638184	-0.458984	-0.132812	-0.408095	-0.256278	0.146355	-0.863922
38571		5.459573	-0.448679	8.037855	-0.002820	-0.002317	0.003226	-0.633545	-0.473633	-0.118408	-0.407996	-0.256207	0.146367	-0.863987
38572		5.466432	-0.416552	8.041922	-0.000434	-0.004173	0.003861	-0.632568	-0.464111	-0.135254	-0.408145	-0.256229	0.146366	-0.863911
38573		5.436499	-0.425427	8.016568	-0.001375	-0.003007	0.004134	-0.637939	-0.465576	-0.123291	-0.408129	-0.256160	0.146393	-0.863934
38574		5.453928	-0.436471	8.025763	-0.001298	-0.005931	0.003055	-0.637939	-0.461914	-0.122314	-0.408140	-0.256178	0.146398	-0.863922
38575		5.455523	-0.434407	8.046563	-0.001167	-0.006501	0.003231	-0.637695	-0.466309	-0.119141	-0.408073	-0.256212	0.146385	-0.863947
38576		5.454675	-0.432778	8.032197	-0.001108	-0.006668	0.002629	-0.631348	-0.463623	-0.123291	-0.408094	-0.256259	0.146377	-0.863924
38577		5.447491	-0.435300	8.053672	-0.004651	-0.005732	0.004198	-0.634521	-0.460938	-0.126221	-0.408057	-0.256263	0.146406	-0.863935
38578		5.455253	-0.430168	8.038692	-0.002022	-0.005973	0.005661	-0.642090	-0.467773	-0.132324	-0.407952	-0.256266	0.146416	-0.863982
38579		5.459600	-0.441139	8.021651	-0.002008	-0.002913	0.002777	-0.634277	-0.468750	-0.131104	-0.408037	-0.256197	0.146460	-0.863955
38580		5.441139	-0.442429	8.052562	-0.000275	-0.001920	0.002532	-0.634521	-0.464355	-0.121582	-0.408131	-0.256139	0.146472	-0.863926
38581		5.455559	-0.427109	8.045400	0.000004	-0.005816	0.002406	-0.639893	-0.465332	-0.120361	-0.408115	-0.256176	0.146445	-0.863927
38582		5.445779	-0.429562	8.031834	-0.001297	-0.005931	0.003054	-0.637207	-0.466797	-0.130859	-0.408120	-0.256207	0.146441	-0.863916
38583		5.446670	-0.430051	8.031204	0.000045	-0.003227	0.002281	-0.644287	-0.470215	-0.120850	-0.408176	-0.256165	0.146448	-0.863901
38584		5.442406	-0.441822	8.036707	0.000045	-0.003227	0.002281	-0.633301	-0.464355	-0.127686	-0.408295	-0.256162	0.146441	-0.863846
38585		5.460484	-0.433446	8.034963	0.002399	-0.002093	0.002012	-0.641357	-0.464111	-0.129150	-0.408285	-0.256144	0.146389	-0.863866
38586		5.458930	-0.428597	8.043035	-0.000724	-0.000042	0.002607	-0.639160	-0.464355	-0.118164	-0.408295	-0.256071	0.146375	-0.863885
38587		5.448748	-0.428406	8.051675	-0.001819	-0.003650	0.002351	-0.637451	-0.467285	-0.131104	-0.408293	-0.256088	0.146351	-0.863885
38588		5.447159	-0.426842	8.037803	-0.000882	-0.002296	0.003934	-0.637695	-0.478027	-0.127197	-0.408342	-0.256028	0.146370	-0.863876
38589		5.441182	-0.433744	8.051490	-0.000271	-0.004440	0.000674	-0.636475	-0.472900	-0.125732	-0.408632	-0.256006	0.146418	-0.863737
38590		5.455811	-0.418277	8.044188	-0.000761	-0.005151	0.000873	-0.638916	-0.462646	-0.120850	-0.408820	-0.256002	0.146448	-0.863645
38591		5.449698	-0.427876	8.036027	-0.000373	-0.004341	0.003257	-0.635498	-0.460938	-0.128418	-0.408772	-0.256020	0.146417	-0.863667
38592		5.447031	-0.460904	8.065865	-0.001801	-0.006406	0.001873	-0.629883	-0.462402	-0.125732	-0.408689	-0.256029	0.146416	-0.863704
38593		5.455932	-0.435989	8.039638	0.000237	-0.006485	-0.000004	-0.633057	-0.468262	-0.123779	-0.408635	-0.256069	0.146378	-0.863724
38594		5.458105	-0.417069	8.027657	0.001912	-0.005325	0.000352	-0.644287	-0.460205	-0.129395	-0.408708	-0.256100	0.146344	-0.863686
38595		5.467467	-0.428981	8.059023	-0.001237	-0.006097	0.002451	-0.632324	-0.458252	-0.130127	-0.408634	-0.256092	0.146353	-0.863722
38596		5.443348	-0.422996	8.049105	0.002173	-0.006465	0.000702	-0.636230	-0.458984	-0.128906	-0.408496	-0.256121	0.146297	-0.863788
38597		5.463819	-0.419322	8.038697	0.000597	-0.005204	-0.000379	-0.636230	-0.464111	-0.128174	-0.408409	-0.256130	0.146255	-0.863834
38598		5.443689	-0.417668	8.055933	0.000220	-0.003729	0.000474	-0.635010	-0.463623	-0.128174	-0.408418	-0.256116	0.146233	-0.863837
38599		5.446188	-0.422694	8.047199	0.001550	-0.004085	0.002584	-0.630615	-0.465576	-0.130859	-0.408389	-0.256111	0.146201	-0.863858
38600		5.443347	-0.415890	8.041220	-0.003042	-0.006687	0.001921	-0.631592	-0.460693	-0.130615	-0.408414	-0.256100	0.146244	-0.863842
38601		5.448059	-0.426610	8.023904	-0.001236	-0.006097	0.002451	-0.641357	-0.469727	-0.127930	-0.408337	-0.256097	0.146246	-0.863879
38602		5.440836	-0.428650	8.045498	-0.000803	-0.005219	0.002854	-0.631104	-0.468750	-0.125977	-0.408429	-0.256082	0.146277	-0.863835
38603		5.439548	-0.426873	8.031420	-0.000443	-0.003938	0.002479	-0.632080	-0.464111	-0.115723	-0.408498	-0.256073	0.146276	-0.863805
38604		5.443035	-0.426675	8.065941	0.000424	-0.004702	0.001426	-0.628418	-0.460938	-0.122803	-0.408470	-0.256132	0.146212	-0.863812
38605		5.460608	-0.423949	8.020548	-0.000255	-0.004675	0.002052	-0.641602	-0.469482	-0.123535	-0.408385	-0.256158	0.146166	-0.863852
38606		5.442108	-0.427629	8.029646	0.000105	-0.003394	0.001678	-0.636230	-0.465088	-0.126465	-0.408476	-0.256150	0.146156	-0.863813
38607		5.452100	-0.420854	8.050077	0.000294	-0.004132	0.001251	-0.626221	-0.463623	-0.133545	-0.408490	-0.256147	0.146136	-0.863811
38608		5.457213	-0.412344	8.021977	-0.000646	-0.002965	0.001526	-0.635742	-0.464355	-0.120361	-0.408482	-0.256102	0.146131	-0.863829
38609		5.446502	-0.430594	8.041559	0.000440	-0.004937	0.002805	-0.633301	-0.464111	-0.119141	-0.408453	-0.256135	0.146093	-0.863839
38610		5.448844	-0.409338	8.051418	0.000294	-0.004132	0.001251	-0.637451	-0.466309	-0.120361	-0.408433	-0.256169	0.146040	-0.863847
38611		5.451422	-0.414667	8.042603	-0.000933	-0.004649	0.002678	-0.640381	-0.461182	-0.130859	-0.408445	-0.256189	0.146024	-0.863839
38612		5.451011	-0.433954	8.053376	-0.001717	-0.001228	0.001627	-0.626709	-0.472168	-0.129639	-0.408408	-0.256122	0.146016	-0.863877
38613		5.450395	-0.410542	8.050307	0.000637	-0.000095	0.001355	-0.628906	-0.461182	-0.124512	-0.408556	-0.256062	0.146004	-0.863827
38614		5.442342	-0.438661	8.053993	0.000596	-0.000163	0.003336	-0.644043	-0.458008	-0.127197	-0.408473	-0.256032	0.145938	-0.863886
38615		5.452203	-0.415974	8.042005	0.000841	-0.001068	0.002307	-0.635986	-0.466309	-0.126221	-0.408357	-0.255994	0.145879	-0.863962
38616		5.439696	-0.413137	8.037362	-0.000474	-0.000946	0.001579	-0.638672	-0.463379	-0.129639	-0.408396	-0.255953	0.145855	-0.863960
38617		5.445471	-0.425673	8.034256	0.000784	-0.000901	0.002909	-0.632812	-0.459961	-0.120850	-0.408374	-0.255900	0.145823	-0.863992
38618		5.445910	-0.423370	8.055922	0.000294	0.000909	0.004967	-0.642090	-0.466064	-0.121582	-0.408257	-0.255869	0.145747	-0.864069
38619		5.425464	-0.432722	8.022372	-0.000229	0.000669	0.002408	-0.636230	-0.464600	-0.125488	-0.408268	-0.255830	0.145698	-0.864084
38620		5.437904	-0.409613	8.045556	0.000147	-0.000806	0.001554	-0.642822	-0.468994	-0.114502	-0.408275	-0.255796	0.145657	-0.864097
38621		5.452701	-0.417985	8.041563	-0.000573	-0.003367	0.002303	-0.644531	-0.462402	-0.121094	-0.408307	-0.255830	0.145616	-0.864079
38622		5.442481	-0.417741	8.050285	-0.000834	0.000293	0.003811	-0.630859	-0.461182	-0.124268	-0.408245	-0.255791	0.145567	-0.864128
38623		5.431479	-0.420306	8.037546	-0.000646	-0.000444	0.003384	-0.632812	-0.469482	-0.131836	-0.408182	-0.255757	0.145521	-0.864176
38624		5.454534	-0.424711	8.033174	-0.000416	0.001407	0.002835	-0.639404	-0.472656	-0.124268	-0.408278	-0.255663	0.145517	-0.864159
38625		5.436508	-0.407020	8.053437	-0.000171	0.000502	0.001806	-0.633789	-0.471191	-0.127686	-0.408407	-0.255612	0.145496	-0.864117
38626		5.438514	-0.435992	8.048462	0.000435	0.003398	0.002261	-0.635254	-0.462158	-0.135498	-0.408522	-0.255521	0.145461	-0.864095
38627		5.428249	-0.416681	8.046716	0.000304	0.003968	0.002085	-0.635254	-0.462646	-0.128174	-0.408509	-0.255393	0.145418	-0.864146
38628		5.417875	-0.439567	8.059023	0.001546	0.001729	0.000179	-0.636230	-0.457031	-0.124756	-0.408502	-0.255334	0.145345	-0.864179
38629		5.424869	-0.406730	8.063117	-0.003322	-0.007829	-0.001666	-0.637939	-0.461426	-0.121338	-0.408414	-0.255376	0.145335	-0.864210
38630		5.422729	-0.426700	8.038128	-0.007383	-0.007128	-0.002648	-0.634766	-0.474121	-0.135742	-0.408414	-0.255402	0.145367	-0.864197
38631		5.435709	-0.433143	8.020413	-0.001185	-0.000448	-0.000553	-0.635254	-0.465576	-0.126465	-0.408618	-0.255312	0.145396	-0.864122
38632		5.432380	-0.396824	8.055321	0.000595	-0.002684	0.001477	-0.636475	-0.465576	-0.125488	-0.408633	-0.255299	0.145362	-0.864125
38633		5.447837	-0.403471	8.072817	-0.006604	-0.003529	0.008716	-0.630371	-0.475830	-0.120117	-0.408587	-0.255250	0.145431	-0.864149
38634		5.421128	-0.420849	8.053123	-0.001837	0.001087	0.009428	-0.637207	-0.468018	-0.125977	-0.408677	-0.255195	0.145439	-0.864122
38635		5.427294	-0.416006	8.039161	-0.002735	0.002323	0.007723	-0.632324	-0.465576	-0.127930	-0.408683	-0.255099	0.145443	-0.864146
38636		5.418465	-0.419055	8.061819	-0.002040	0.002060	0.008475	-0.627197	-0.462646	-0.135498	-0.408643	-0.255006	0.145439	-0.864194
38637		5.422056	-0.427901	8.067165	-0.002213	0.000042	0.008422	-0.632568	-0.472412	-0.130371	-0.408568	-0.254906	0.145457	-0.864255
38638		5.423653	-0.434171	8.058949	-0.000873	0.000224	0.005791	-0.635986	-0.464355	-0.129883	-0.408667	-0.254829	0.145472	-0.864229
38639		5.432948	-0.428094	8.079837	-0.000572	-0.000848	0.004160	-0.635742	-0.464600	-0.134033	-0.408650	-0.254774	0.145456	-0.864256
38640		5.421930	-0.430882	8.067092	-0.001624	0.000654	0.005640	-0.637939	-0.456787	-0.130127	-0.408635	-0.254677	0.145462	-0.864290
38641		5.417981	-0.424362	8.061867	0.000671	-0.000568	0.004112	-0.630371	-0.465332	-0.130371	-0.408493	-0.254630	0.145406	-0.864381
38642		5.414346	-0.417541	8.056448	-0.000198	-0.002323	0.003306	-0.633789	-0.470459	-0.130371	-0.408503	-0.254596	0.145393	-0.864388
38643		5.423672	-0.413755	8.055347	0.000046	-0.003228	0.002277	-0.629639	-0.470459	-0.121582	-0.408602	-0.254569	0.145398	-0.864349
38644		5.417655	-0.420894	8.069084	-0.002045	-0.002979	0.004757	-0.635498	-0.463379	-0.127197	-0.408663	-0.254565	0.145401	-0.864320
38645		5.402249	-0.435301	8.061928	-0.002175	-0.002408	0.004582	-0.625488	-0.460449	-0.119141	-0.408624	-0.254532	0.145399	-0.864349
38646		5.425946	-0.439724	8.057105	0.001345	-0.003115	0.001627	-0.634766	-0.465088	-0.129883	-0.408542	-0.254574	0.145312	-0.864390
38647		5.422362	-0.406088	8.070268	-0.000288	-0.001684	0.001151	-0.630371	-0.468018	-0.122314	-0.408570	-0.254536	0.145289	-0.864392
38648		5.409243	-0.421972	8.076535	0.000306	-0.004369	0.002627	-0.628418	-0.467529	-0.132324	-0.408605	-0.254561	0.145262	-0.864372
38649		5.404647	-0.436413	8.060260	0.000871	-0.004062	0.003204	-0.637207	-0.462402	-0.130127	-0.408646	-0.254543	0.145258	-0.864359
38650		5.393389	-0.430926	8.076793	-0.001388	-0.005289	0.000894	-0.632812	-0.462158	-0.133545	-0.408629	-0.254539	0.145257	-0.864368
38651		5.425884	-0.407439	8.067832	-0.001111	-0.006666	0.002622	-0.640625	-0.461914	-0.128174	-0.408595	-0.254536	0.145273	-0.864382
38652		5.428094	-0.415758	8.037221	-0.001123	-0.003910	0.003102	-0.621094	-0.468262	-0.131592	-0.408544	-0.254522	0.145263	-0.864412
38653		5.405149	-0.428545	8.073988	-0.001179	-0.003743	0.003704	-0.639648	-0.468506	-0.124512	-0.408606	-0.254495	0.145280	-0.864388
38654		5.405857	-0.429108	8.073484	0.000120	-0.003631	0.003053	-0.630859	-0.463867	-0.131104	-0.408646	-0.254495	0.145265	-0.864372
38655		5.425780	-0.425865	8.063361	0.001967	-0.002976	0.001601	-0.641602	-0.462646	-0.131592	-0.408643	-0.254481	0.145223	-0.864385
38656		5.422217	-0.418392	8.057934	0.002011	-0.000388	0.001479	-0.636719	-0.460449	-0.131104	-0.408623	-0.254432	0.145168	-0.864417
38657		5.420800	-0.413464	8.065973	-0.000779	-0.002394	0.001350	-0.626953	-0.464600	-0.118896	-0.408578	-0.254398	0.145143	-0.864453
38658		5.425063	-0.421492	8.070901	-0.002359	-0.001670	0.005010	-0.636963	-0.464600	-0.127930	-0.408544	-0.254394	0.145116	-0.864475
38659		5.422781	-0.420129	8.057464	-0.001219	0.002004	0.003286	-0.634277	-0.464844	-0.124756	-0.408544	-0.254316	0.145083	-0.864503
38660		5.423878	-0.426086	8.049585	-0.002890	0.003368	0.004792	-0.636719	-0.467773	-0.127930	-0.408534	-0.254228	0.145056	-0.864539
38661		5.422910	-0.427000	8.050189	-0.000173	0.005776	0.004145	-0.635254	-0.458252	-0.131104	-0.408575	-0.254113	0.145005	-0.864562
38662		5.383214	-0.434373	8.070276	-0.001924	0.005024	0.003015	-0.633545	-0.470215	-0.128418	-0.408501	-0.253993	0.144952	-0.864641
38663		5.383374	-0.432197	8.092148	0.000351	-0.001781	0.002504	-0.641113	-0.465088	-0.125977	-0.408583	-0.253964	0.144935	-0.864613
38664		5.390520	-0.425912	8.077605	0.000853	-0.003826	0.001824	-0.636475	-0.465088	-0.126221	-0.408580	-0.253972	0.144900	-0.864619
38665		5.402044	-0.426957	8.067944	-0.000435	-0.006693	0.001994	-0.628906	-0.468262	-0.132812	-0.408578	-0.254004	0.144894	-0.864611
38666		5.419361	-0.414301	8.073733	-0.001643	-0.007445	0.004800	-0.637451	-0.463867	-0.130371	-0.408617	-0.254006	0.144942	-0.864584
38667		5.411848	-0.419626	8.073542	-0.003331	-0.005845	0.004927	-0.634521	-0.462891	-0.127686	-0.408586	-0.253992	0.144981	-0.864596
38668		5.399053	-0.436451	8.079543	-0.002477	-0.003854	0.004354	-0.632568	-0.459473	-0.130127	-0.408545	-0.253975	0.144987	-0.864619
38669		5.413353	-0.421711	8.072424	-0.001512	-0.002199	0.002577	-0.642578	-0.465332	-0.136719	-0.408484	-0.253941	0.144966	-0.864662
38670		5.410251	-0.412519	8.088667	-0.001940	-0.000556	0.004034	-0.627686	-0.458008	-0.129395	-0.408499	-0.253850	0.144985	-0.864678
38671		5.412069	-0.418827	8.080278	-0.003768	-0.001447	0.006864	-0.633789	-0.467285	-0.131836	-0.408387	-0.253794	0.144991	-0.864746
38672		5.411947	-0.420238	8.080286	-0.002571	0.002060	0.004540	-0.636475	-0.460205	-0.129150	-0.408433	-0.253694	0.144995	-0.864754
38673		5.400459	-0.423195	8.067844	-0.001310	0.002102	0.005868	-0.633057	-0.464844	-0.131592	-0.408350	-0.253612	0.144959	-0.864822
38674		5.403839	-0.431340	8.073346	-0.000651	0.002310	0.003864	-0.635742	-0.457520	-0.131836	-0.408366	-0.253523	0.144930	-0.864846
38675		5.403000	-0.431918	8.073876	-0.000112	0.005609	0.003544	-0.631104	-0.468750	-0.135986	-0.408286	-0.253405	0.144857	-0.864931
38676		5.382719	-0.435880	8.084197	-0.001661	0.003883	0.003365	-0.633545	-0.466553	-0.128418	-0.408383	-0.253277	0.144855	-0.864923
38677		5.395428	-0.423515	8.056161	0.001037	0.000710	0.003736	-0.631592	-0.459229	-0.132324	-0.408404	-0.253228	0.144809	-0.864935
38678		5.383844	-0.441834	8.076285	0.000053	-0.000710	0.004134	-0.632812	-0.466309	-0.129395	-0.408336	-0.253178	0.144774	-0.864987
38679		5.400096	-0.428957	8.082817	-0.000085	-0.002658	0.002100	-0.633057	-0.465576	-0.132568	-0.408374	-0.253160	0.144754	-0.864978
38680		5.384307	-0.419058	8.072584	-0.001487	-0.005190	0.003473	-0.637939	-0.468018	-0.136230	-0.408394	-0.253148	0.144775	-0.864969
38681		5.403622	-0.435383	8.073274	-0.002600	-0.006038	0.003697	-0.631348	-0.467773	-0.133301	-0.408448	-0.253121	0.144830	-0.864942
38682		5.397546	-0.419017	8.083708	-0.002052	-0.005496	0.002896	-0.636230	-0.461914	-0.135254	-0.408510	-0.253106	0.144865	-0.864911
38683		5.395332	-0.436021	8.080694	-0.000133	-0.005246	0.002220	-0.636475	-0.464111	-0.126953	-0.408488	-0.253094	0.144863	-0.864925
38684		5.362600	-0.434208	8.071506	-0.001126	-0.009184	0.000758	-0.625244	-0.463867	-0.127441	-0.408487	-0.253155	0.144869	-0.864907
38685		5.414469	-0.426150	8.063244	-0.001406	-0.013623	0.001425	-0.630615	-0.464600	-0.127686	-0.408491	-0.253262	0.144906	-0.864868
38686		5.413707	-0.443529	8.059228	-0.005196	-0.011534	0.002657	-0.642578	-0.468018	-0.134766	-0.408497	-0.253321	0.144979	-0.864835
38687		5.389671	-0.430506	8.078518	-0.000328	-0.012845	0.003179	-0.634521	-0.459961	-0.126709	-0.408524	-0.253384	0.145038	-0.864794
38688		5.409941	-0.423008	8.075210	-0.002738	-0.013803	0.004054	-0.627686	-0.472412	-0.131836	-0.408430	-0.253483	0.145084	-0.864802
38689		5.384060	-0.434261	8.062109	-0.003303	-0.014109	0.003477	-0.625000	-0.464600	-0.137939	-0.408541	-0.253556	0.145189	-0.864710
38690		5.409088	-0.431124	8.085473	0.001601	-0.015351	0.002016	-0.643066	-0.467285	-0.121826	-0.408560	-0.253651	0.145237	-0.864665
38691		5.407936	-0.424290	8.078422	-0.002503	-0.011952	0.003506	-0.636963	-0.468994	-0.126709	-0.408554	-0.253743	0.145279	-0.864634
38692		5.403152	-0.460518	8.050568	0.000167	-0.012135	0.002976	-0.627441	-0.464844	-0.133057	-0.408590	-0.253832	0.145310	-0.864586
38693		5.394509	-0.435534	8.055053	0.004769	-0.011763	-0.001589	-0.635986	-0.465820	-0.132812	-0.408628	-0.253929	0.145281	-0.864544
38694		5.418391	-0.407077	8.075932	0.003398	-0.011469	-0.001713	-0.645020	-0.460449	-0.126709	-0.408674	-0.254012	0.145267	-0.864500
38695		5.443765	-0.410538	8.069885	0.001186	-0.010647	0.000598	-0.634033	-0.467529	-0.129150	-0.408604	-0.254096	0.145248	-0.864512
38696		5.421156	-0.428315	8.062469	-0.002008	-0.011242	0.003308	-0.640869	-0.463623	-0.128906	-0.408631	-0.254154	0.145303	-0.864473
38697		5.403299	-0.451128	8.081740	-0.002205	-0.013023	0.001875	-0.638916	-0.459961	-0.132568	-0.408609	-0.254233	0.145353	-0.864452
38698		5.408839	-0.437758	8.060392	-0.000224	-0.015697	0.000109	-0.633301	-0.469482	-0.126709	-0.408553	-0.254343	0.145388	-0.864440
38699		5.418708	-0.430940	8.043969	0.002172	-0.017257	-0.002633	-0.639893	-0.461182	-0.127197	-0.408642	-0.254505	0.145410	-0.864346
38700		5.440030	-0.419345	8.062044	0.001742	-0.012859	-0.000691	-0.634521	-0.468018	-0.125244	-0.408598	-0.254614	0.145396	-0.864337
38701		5.428785	-0.444829	8.015793	0.002095	-0.008824	-0.000581	-0.633301	-0.468994	-0.123779	-0.408654	-0.254686	0.145374	-0.864293
38702		5.426764	-0.449801	8.064103	0.004873	-0.006280	-0.005192	-0.635498	-0.459229	-0.130371	-0.408767	-0.254758	0.145294	-0.864232
38703		5.418932	-0.402338	8.079750	0.003347	-0.008241	-0.003991	-0.628906	-0.470947	-0.128662	-0.408744	-0.254820	0.145232	-0.864236
38704		5.431571	-0.402555	8.069263	0.001223	-0.013638	0.001489	-0.634033	-0.470703	-0.128418	-0.408822	-0.254921	0.145268	-0.864162
38705		5.428867	-0.443473	8.032843	-0.002809	-0.015917	0.001419	-0.637695	-0.458008	-0.123779	-0.408899	-0.255025	0.145359	-0.864080
38706		5.422591	-0.397872	8.047353	-0.000477	-0.014555	-0.000240	-0.633789	-0.466064	-0.130127	-0.408800	-0.255154	0.145362	-0.864089
38707		5.436270	-0.422751	8.039435	-0.001137	-0.012008	0.002250	-0.637207	-0.469482	-0.124268	-0.408811	-0.255218	0.145408	-0.864057
38708		5.433510	-0.434890	8.043938	-0.002387	-0.009530	0.002788	-0.636475	-0.463379	-0.127197	-0.408853	-0.255267	0.145452	-0.864015
38709		5.424231	-0.410977	8.048848	-0.000785	-0.007973	0.002360	-0.633057	-0.467041	-0.127930	-0.408823	-0.255300	0.145459	-0.864018
38710		5.433422	-0.426173	8.058251	-0.000639	-0.006025	0.004395	-0.636963	-0.467529	-0.125000	-0.408829	-0.255305	0.145474	-0.864011
38711		5.452009	-0.418636	8.055939	-0.001729	-0.004048	0.003127	-0.639648	-0.467529	-0.128906	-0.408852	-0.255296	0.145481	-0.864002
38712		5.436014	-0.409051	8.045919	-0.002097	-0.002573	0.003985	-0.625732	-0.461670	-0.126465	-0.408874	-0.255251	0.145497	-0.864002
38713		5.444975	-0.405972	8.044952	-0.002857	0.000615	0.004323	-0.635986	-0.467529	-0.123291	-0.408831	-0.255185	0.145481	-0.864045
38714		5.431549	-0.446124	8.054842	-0.001226	0.002241	0.001916	-0.630859	-0.467529	-0.124756	-0.408874	-0.255120	0.145441	-0.864050
38715		5.419407	-0.398385	8.058382	-0.000765	0.002881	0.003695	-0.639893	-0.463623	-0.119385	-0.408907	-0.255043	0.145402	-0.864064
38716		5.407038	-0.419991	8.057050	-0.003838	-0.000803	0.004723	-0.633301	-0.467041	-0.128174	-0.408859	-0.255008	0.145393	-0.864098
38717		5.418730	-0.445793	8.050386	-0.002450	-0.006607	0.003872	-0.635254	-0.459961	-0.130371	-0.408875	-0.255012	0.145429	-0.864084
38718		5.426623	-0.439937	8.035183	-0.000190	-0.007598	0.000954	-0.632324	-0.468262	-0.126953	-0.408822	-0.255038	0.145421	-0.864102
38719		5.436914	-0.409406	8.052206	0.001359	-0.005874	0.001128	-0.637207	-0.455566	-0.128418	-0.408872	-0.255063	0.145403	-0.864074
38720		5.434638	-0.426053	8.049237	-0.000924	-0.004647	0.002670	-0.631348	-0.462158	-0.131836	-0.408745	-0.255060	0.145376	-0.864140
38721		5.417293	-0.410921	8.047344	0.000293	-0.004133	0.001238	-0.643311	-0.463867	-0.130371	-0.408737	-0.255044	0.145359	-0.864151
38722		5.438436	-0.405538	8.058295	-0.002755	-0.008054	0.003643	-0.637939	-0.473877	-0.133301	-0.408703	-0.255054	0.145400	-0.864158
38723		5.431120	-0.437338	8.039187	-0.003273	-0.008833	0.005823	-0.633301	-0.460938	-0.127686	-0.408786	-0.255050	0.145494	-0.864103
38724		5.440131	-0.410578	8.034867	-0.000860	0.000459	0.004415	-0.631836	-0.467773	-0.129150	-0.408726	-0.254990	0.145460	-0.864155
38725		5.433428	-0.417958	8.049198	-0.001717	0.001225	0.005474	-0.630127	-0.469971	-0.133057	-0.408753	-0.254906	0.145458	-0.864167
38726		5.414867	-0.446150	8.061883	-0.002822	-0.002377	0.005216	-0.635498	-0.468506	-0.126465	-0.408820	-0.254842	0.145502	-0.864148
38727		5.393857	-0.448002	8.057948	-0.000617	-0.003200	0.002898	-0.631592	-0.469727	-0.135010	-0.408861	-0.254826	0.145497	-0.864134
38728		5.419741	-0.431051	8.063032	-0.000296	-0.007264	0.002156	-0.633301	-0.457275	-0.135254	-0.408940	-0.254826	0.145532	-0.864090
38729		5.430117	-0.427308	8.061140	-0.001303	-0.008444	0.001179	-0.633545	-0.457764	-0.127686	-0.408859	-0.254842	0.145543	-0.864122
38730		5.429622	-0.425740	8.046448	-0.002931	-0.010071	0.003585	-0.635986	-0.472900	-0.119873	-0.408751	-0.254890	0.145572	-0.864154
38731		5.439456	-0.425518	8.022692	-0.004049	-0.008163	0.004299	-0.638428	-0.461182	-0.128174	-0.408819	-0.254930	0.145629	-0.864101
38732		5.433509	-0.425630	8.065869	-0.003381	-0.005436	0.004155	-0.633545	-0.465332	-0.127686	-0.408756	-0.254918	0.145652	-0.864130
38733		5.421859	-0.423621	8.060748	-0.003976	-0.005504	0.002203	-0.634277	-0.467773	-0.129639	-0.408777	-0.254909	0.145688	-0.864117
38734		5.431765	-0.420509	8.059133	-0.002655	-0.005632	0.002923	-0.639160	-0.471924	-0.126221	-0.408820	-0.254898	0.145723	-0.864094
38735		5.427554	-0.409332	8.061315	-0.004257	-0.007188	0.003350	-0.633789	-0.466309	-0.127686	-0.408898	-0.254903	0.145788	-0.864044
38736		5.437967	-0.433256	8.040409	-0.005930	-0.011402	0.005872	-0.639404	-0.459229	-0.132324	-0.408886	-0.254940	0.145889	-0.864022
38737		5.441483	-0.440018	8.030736	-0.005237	-0.008605	0.003750	-0.640381	-0.461914	-0.123291	-0.408810	-0.254941	0.145952	-0.864047
38738		5.431128	-0.435589	8.046930	-0.003556	-0.007454	0.004096	-0.636475	-0.462646	-0.129883	-0.408744	-0.254967	0.145978	-0.864066
38739		5.437600	-0.425418	8.039818	-0.003294	-0.008596	0.004441	-0.633789	-0.460938	-0.130615	-0.408701	-0.254983	0.146027	-0.864073
38740		5.438123	-0.445334	8.049868	-0.003013	-0.006912	0.003294	-0.637207	-0.463623	-0.124023	-0.408660	-0.254983	0.146059	-0.864088
38741		5.428064	-0.447574	8.036518	0.001666	-0.004430	0.001350	-0.636719	-0.463623	-0.122803	-0.408641	-0.255006	0.146012	-0.864098
38742		5.438600	-0.440668	8.056736	0.001097	-0.004734	0.000775	-0.633057	-0.464111	-0.131104	-0.408628	-0.255035	0.145967	-0.864103
38743		5.432550	-0.423469	8.067444	0.000452	-0.004943	0.002782	-0.632568	-0.469727	-0.132324	-0.408629	-0.255028	0.145961	-0.864106
38744		5.422473	-0.425779	8.054107	-0.001201	-0.006332	0.003812	-0.632080	-0.462891	-0.127930	-0.408693	-0.255019	0.146001	-0.864071
38745		5.433310	-0.446190	8.055118	-0.001947	-0.008653	0.003180	-0.629639	-0.459961	-0.126953	-0.408668	-0.255052	0.146029	-0.864068
38746		5.444529	-0.424108	8.042143	-0.001331	-0.005761	0.003640	-0.630127	-0.461426	-0.133301	-0.408610	-0.255062	0.146027	-0.864093
38747		5.421899	-0.439462	8.057062	-0.000574	-0.008948	0.003295	-0.632568	-0.465088	-0.128662	-0.408583	-0.255085	0.146055	-0.864094
38748		5.442542	-0.436605	8.046103	0.000065	-0.005985	0.001776	-0.637695	-0.459229	-0.125000	-0.408603	-0.255098	0.146052	-0.864082
38749		5.437984	-0.424500	8.048599	0.000682	-0.003093	0.002236	-0.629150	-0.470703	-0.130859	-0.408529	-0.255098	0.146002	-0.864126
38750		5.424519	-0.416889	8.051987	-0.002133	-0.005160	0.004098	-0.637207	-0.457031	-0.130371	-0.408614	-0.255075	0.146048	-0.864084
38751		5.435964	-0.418960	8.042082	-0.003216	-0.006244	0.005703	-0.639160	-0.467529	-0.125488	-0.408497	-0.255064	0.146075	-0.864138
38752		5.427258	-0.442926	8.053263	-0.001461	-0.005189	0.003467	-0.631348	-0.466797	-0.125488	-0.408508	-0.255068	0.146085	-0.864130
38753		5.435385	-0.410862	8.056823	-0.001246	-0.008919	0.003924	-0.638428	-0.469482	-0.125977	-0.408520	-0.255113	0.146115	-0.864106
38754		5.452777	-0.425065	8.043459	-0.003552	-0.007452	0.004096	-0.628418	-0.465820	-0.127441	-0.408555	-0.255126	0.146168	-0.864077
38755		5.432991	-0.451123	8.041990	-0.004097	-0.005240	0.005387	-0.629639	-0.472656	-0.122070	-0.408567	-0.255107	0.146218	-0.864068
38756		5.417241	-0.434168	8.061368	-0.002124	-0.010669	0.003119	-0.641602	-0.469238	-0.129395	-0.408654	-0.255178	0.146271	-0.863997
38757		5.444911	-0.425480	8.035684	-0.002846	-0.010474	0.004351	-0.639893	-0.458740	-0.135254	-0.408682	-0.255213	0.146342	-0.863962
38758		5.413001	-0.463822	8.062275	0.000179	-0.009383	0.003434	-0.639893	-0.467041	-0.133301	-0.408597	-0.255238	0.146357	-0.863992
38759		5.457111	-0.414612	8.061977	0.000716	-0.011285	-0.001213	-0.637207	-0.459229	-0.123047	-0.408657	-0.255297	0.146380	-0.863942
