// Start Time: Unknown
// Update Rate: 40.0Hz
// Filter Profile: human (46.1)
// Firmware Version: 4.6.0
PacketCounter	SampleTimeFine	Acc_X	Acc_Y	Acc_Z	Gyr_X	Gyr_Y	Gyr_Z	Mag_X	Mag_Y	Mag_Z	Quat_q0	Quat_q1	Quat_q2	Quat_q3
03148		4.720192	-1.673733	8.328398	0.021894	-0.005446	-0.003740	-0.629883	0.438721	-0.265869	0.334172	-0.267397	-0.003446	-0.903779
03149		4.697766	-1.688544	8.327015	0.022376	-0.004872	-0.002745	-0.636475	0.442383	-0.273682	0.334215	-0.267358	-0.003729	-0.903773
03150		4.697565	-1.695931	8.331787	0.028741	-0.006683	-0.002427	-0.626953	0.431641	-0.276367	0.334284	-0.267308	-0.004091	-0.903761
03151		4.729934	-1.648560	8.332191	0.034630	-0.007860	-0.004069	-0.640137	0.436768	-0.271484	0.334354	-0.267251	-0.004527	-0.903750
03152		4.770316	-1.636058	8.341941	0.023754	-0.007266	-0.002427	-0.633545	0.441406	-0.267822	0.334405	-0.267233	-0.004834	-0.903735
03153		4.720516	-1.643162	8.336056	0.008999	-0.005175	-0.000626	-0.635010	0.438965	-0.263428	0.334427	-0.267256	-0.004962	-0.903719
03154		4.712584	-1.643887	8.325716	0.005062	-0.011353	0.001295	-0.631348	0.433350	-0.267578	0.334457	-0.267364	-0.005066	-0.903676
03155		4.705166	-1.644686	8.315074	0.007945	-0.010024	-0.001291	-0.635010	0.430420	-0.274170	0.334467	-0.267443	-0.005206	-0.903648
03156		4.699994	-1.686577	8.311654	0.011302	-0.009327	-0.001921	-0.625488	0.437744	-0.271729	0.334482	-0.267497	-0.005382	-0.903625
03157		4.736947	-1.647889	8.317997	0.020816	-0.010301	-0.004438	-0.633301	0.429443	-0.270264	0.334504	-0.267521	-0.005667	-0.903608
03158		4.710015	-1.623155	8.322612	0.023107	-0.006426	-0.005061	-0.633057	0.432373	-0.268311	0.334525	-0.267494	-0.005964	-0.903606
03159		4.712346	-1.592148	8.355902	0.016701	-0.012718	-0.007596	-0.630859	0.435547	-0.269531	0.334495	-0.267561	-0.006225	-0.903596
03160		4.757005	-1.604645	8.346137	0.002487	-0.017578	0.000091	-0.633301	0.429932	-0.270264	0.334507	-0.267732	-0.006326	-0.903540
03161		4.757938	-1.609704	8.328152	-0.001892	-0.017867	0.000212	-0.634277	0.432617	-0.264404	0.334498	-0.267922	-0.006388	-0.903487
03162		4.741496	-1.635552	8.331765	-0.002676	-0.012337	0.002049	-0.637207	0.434570	-0.273438	0.334507	-0.268063	-0.006414	-0.903441
03163		4.747874	-1.620587	8.312756	0.000531	-0.008587	0.002832	-0.633789	0.438965	-0.263184	0.334538	-0.268134	-0.006459	-0.903408
03164		4.732721	-1.617443	8.337711	-0.000153	-0.006183	0.001706	-0.632812	0.439453	-0.272217	0.334561	-0.268200	-0.006482	-0.903380
03165		4.725712	-1.627737	8.347587	-0.000055	-0.007674	0.001770	-0.635498	0.435791	-0.271484	0.334591	-0.268259	-0.006516	-0.903351
03166		4.721965	-1.637949	8.314789	0.001283	-0.010139	0.000552	-0.630371	0.433594	-0.272461	0.334602	-0.268334	-0.006581	-0.903324
03167		4.717774	-1.611094	8.324136	0.002718	-0.014094	-0.000601	-0.638916	0.430664	-0.281738	0.334612	-0.268441	-0.006677	-0.903288
03168		4.693176	-1.625438	8.313862	-0.003340	-0.015548	-0.001673	-0.637207	0.433105	-0.271484	0.334570	-0.268553	-0.006732	-0.903270
03169		4.746406	-1.627920	8.321816	-0.000495	-0.017844	-0.001388	-0.634766	0.440430	-0.270508	0.334546	-0.268706	-0.006811	-0.903233
03170		4.759832	-1.602226	8.333817	-0.000861	-0.015861	-0.001210	-0.630371	0.440430	-0.269775	0.334557	-0.268841	-0.006864	-0.903188
03171		4.739290	-1.625280	8.301271	-0.005714	-0.013884	-0.000006	-0.636475	0.433105	-0.264160	0.334579	-0.268978	-0.006849	-0.903139
03172		4.739251	-1.651810	8.308369	-0.000525	-0.013866	-0.001829	-0.639404	0.438965	-0.266357	0.334541	-0.269121	-0.006907	-0.903111
03173		4.750519	-1.638709	8.325275	0.001806	-0.012761	-0.002978	-0.641846	0.435303	-0.278809	0.334522	-0.269232	-0.006981	-0.903084
03174		4.748084	-1.598276	8.330165	0.003968	-0.012653	-0.003819	-0.630127	0.440918	-0.272949	0.334489	-0.269263	-0.007105	-0.903086
03175		4.753476	-1.618515	8.310979	0.000824	-0.013488	-0.000981	-0.634521	0.437256	-0.272949	0.334551	-0.269344	-0.007158	-0.903038
03176		4.743611	-1.599730	8.317736	-0.002228	-0.009419	-0.000430	-0.625732	0.427002	-0.278076	0.334569	-0.269391	-0.007171	-0.903018
03177		4.756794	-1.608319	8.317151	-0.000085	-0.011726	0.000646	-0.630127	0.430176	-0.265381	0.334573	-0.269405	-0.007235	-0.903011
03178		4.769921	-1.594131	8.320986	-0.006544	-0.007999	0.004284	-0.637939	0.434814	-0.268066	0.334582	-0.269503	-0.007178	-0.902979
03179		4.762826	-1.629765	8.326070	-0.007355	-0.007729	0.005975	-0.637207	0.430908	-0.270020	0.334610	-0.269586	-0.007116	-0.902945
03180		4.743207	-1.649327	8.310186	-0.007026	-0.006941	0.006318	-0.638428	0.438965	-0.269287	0.334612	-0.269638	-0.007067	-0.902929
03181		4.749937	-1.643448	8.311770	-0.002968	-0.006232	0.004880	-0.631348	0.432373	-0.278564	0.334681	-0.269678	-0.007039	-0.902892
03182		4.774353	-1.601231	8.317080	-0.002065	-0.001172	0.004894	-0.637207	0.428467	-0.276367	0.334758	-0.269553	-0.007028	-0.902900
03183		4.761627	-1.630783	8.316133	-0.004601	-0.000504	0.006875	-0.635254	0.436768	-0.270752	0.334750	-0.269460	-0.007001	-0.902931
03184		4.758628	-1.637700	8.299979	-0.005198	-0.000798	0.006775	-0.635254	0.437256	-0.273438	0.334837	-0.269433	-0.006925	-0.902907
03185		4.759875	-1.623847	8.324590	-0.004421	0.001702	0.005611	-0.629395	0.436279	-0.268311	0.334927	-0.269348	-0.006857	-0.902900
03186		4.756602	-1.628163	8.337843	-0.006318	0.001101	0.006206	-0.636230	0.439209	-0.273438	0.335040	-0.269324	-0.006746	-0.902866
03187		4.758812	-1.630545	8.295145	-0.009132	0.000628	0.005399	-0.635498	0.427979	-0.268066	0.335125	-0.269271	-0.006627	-0.902851
03188		4.736028	-1.637367	8.318380	-0.008515	0.003765	0.007574	-0.635010	0.435791	-0.268799	0.335054	-0.269236	-0.006520	-0.902889
03189		4.689281	-1.665824	8.311236	-0.001609	0.002174	0.006416	-0.634766	0.435303	-0.269775	0.335119	-0.269187	-0.006472	-0.902880
03190		4.702905	-1.669248	8.327901	0.004955	-0.001838	0.001881	-0.632080	0.430908	-0.267334	0.335152	-0.269139	-0.006532	-0.902882
03191		4.729612	-1.648622	8.286798	0.005328	-0.002613	0.000740	-0.635254	0.437012	-0.271240	0.335122	-0.269116	-0.006604	-0.902899
03192		4.736533	-1.611688	8.351856	0.001683	-0.005657	-0.000451	-0.631592	0.431641	-0.263184	0.335148	-0.269108	-0.006645	-0.902891
03193		4.739024	-1.645523	8.337713	0.001543	-0.009001	0.003316	-0.630859	0.433105	-0.271484	0.335132	-0.269233	-0.006672	-0.902860
03194		4.734832	-1.632461	8.309616	0.000116	-0.005045	0.004479	-0.633057	0.434570	-0.271484	0.335203	-0.269192	-0.006690	-0.902846
03195		4.717753	-1.642709	8.339350	-0.001664	-0.004718	0.003222	-0.633789	0.432129	-0.274170	0.335248	-0.269165	-0.006689	-0.902837
03196		4.731072	-1.664426	8.301218	0.001659	-0.008075	0.001462	-0.628662	0.430908	-0.258057	0.335241	-0.269117	-0.006773	-0.902853
03197		4.740985	-1.650691	8.319068	0.008329	-0.005549	-0.002325	-0.636475	0.430908	-0.273926	0.335173	-0.269250	-0.006848	-0.902838
03198		4.749589	-1.581413	8.325867	0.005645	-0.003461	-0.001951	-0.630615	0.431152	-0.265625	0.335082	-0.269140	-0.006984	-0.902904
03199		4.741752	-1.614616	8.331800	-0.002409	-0.003593	0.001515	-0.627197	0.434570	-0.267822	0.335049	-0.269182	-0.006960	-0.902903
03200		4.710477	-1.645240	8.340574	-0.002686	-0.004308	0.002717	-0.633057	0.442627	-0.263428	0.335178	-0.269184	-0.006916	-0.902855
03201		4.709106	-1.627557	8.328292	-0.001699	-0.008769	0.002103	-0.634033	0.431885	-0.276367	0.335351	-0.269350	-0.006843	-0.902742
03202		4.726998	-1.651993	8.326175	0.002586	-0.006994	0.001904	-0.629639	0.433838	-0.276855	0.335355	-0.269226	-0.006955	-0.902777
03203		4.728398	-1.628316	8.330009	0.000284	-0.004473	0.000182	-0.634766	0.433594	-0.267822	0.335456	-0.269057	-0.007012	-0.902789
03204		4.714338	-1.637805	8.317200	0.002360	-0.008063	0.000663	-0.636719	0.425293	-0.270996	0.335416	-0.269114	-0.007073	-0.902787
03205		4.709620	-1.634318	8.322421	0.003346	-0.012524	0.000047	-0.632324	0.434814	-0.270996	0.335150	-0.269149	-0.007240	-0.902873
03206		4.719538	-1.613167	8.319066	0.002245	-0.014603	-0.000092	-0.637451	0.433350	-0.270508	0.335215	-0.269207	-0.007331	-0.902832
03207		4.743962	-1.653223	8.314436	0.000053	-0.011939	0.001280	-0.630127	0.430176	-0.277832	0.335151	-0.269274	-0.007402	-0.902835
03208		4.726233	-1.600079	8.311691	0.000158	-0.012221	0.000383	-0.635010	0.426758	-0.275635	0.335203	-0.269155	-0.007526	-0.902850
03209		4.708131	-1.638851	8.320000	-0.005229	-0.016075	0.000444	-0.629150	0.431152	-0.269287	0.335028	-0.269165	-0.007625	-0.902911
03210		4.746487	-1.605157	8.324249	-0.005081	-0.017495	0.002048	-0.631592	0.420166	-0.267090	0.335069	-0.269289	-0.007644	-0.902859
03211		4.731578	-1.642344	8.318785	-0.006476	-0.016309	0.002685	-0.631104	0.436035	-0.265625	0.334724	-0.269432	-0.007699	-0.902943
03212		4.769012	-1.632245	8.318908	-0.004321	-0.011015	0.000459	-0.628906	0.424561	-0.277344	0.334829	-0.269564	-0.007654	-0.902866
03213		4.754701	-1.629962	8.343526	-0.004624	-0.008959	0.002191	-0.639893	0.445068	-0.270996	0.334796	-0.269393	-0.007749	-0.902928
03214		4.755107	-1.646999	8.317259	-0.006173	-0.012752	0.003557	-0.627686	0.436523	-0.264893	0.335041	-0.269517	-0.007679	-0.902801
03215		4.742402	-1.634730	8.307969	-0.005462	-0.011531	0.001804	-0.634277	0.427246	-0.264893	0.335242	-0.269651	-0.007608	-0.902687
03216		4.735632	-1.635946	8.325755	-0.007610	-0.015618	0.003069	-0.625977	0.427979	-0.266602	0.335011	-0.269854	-0.007599	-0.902712
03217		4.756837	-1.626014	8.322272	-0.009451	-0.016146	0.005213	-0.635010	0.439209	-0.268555	0.335042	-0.269979	-0.007557	-0.902664
03218		4.776211	-1.652745	8.318726	-0.008580	-0.015137	0.004108	-0.632324	0.440918	-0.276123	0.335216	-0.270125	-0.007489	-0.902556
03219		4.763141	-1.664288	8.304952	-0.004410	-0.009101	0.004381	-0.633545	0.432129	-0.266357	0.335585	-0.270012	-0.007481	-0.902452
03220		4.756987	-1.628495	8.323586	-0.002664	-0.007081	0.002177	-0.633301	0.435303	-0.266602	0.335532	-0.270060	-0.007480	-0.902458
03221		4.762111	-1.637143	8.300492	-0.000709	-0.006411	0.003123	-0.632324	0.432129	-0.270752	0.335610	-0.270091	-0.007480	-0.902420
03222		4.757578	-1.645329	8.297193	-0.001077	-0.005636	0.004266	-0.632568	0.443848	-0.264160	0.335647	-0.270015	-0.007511	-0.902428
03223		4.761587	-1.617749	8.316942	-0.002238	-0.003382	0.006150	-0.629150	0.427734	-0.273438	0.336026	-0.270085	-0.007406	-0.902267
03224		4.758141	-1.670852	8.291802	-0.001883	-0.000177	0.004589	-0.625488	0.441162	-0.269531	0.335972	-0.269867	-0.007435	-0.902352
03225		4.751902	-1.642827	8.331696	-0.001295	-0.001093	0.005641	-0.629639	0.445312	-0.270264	0.336445	-0.269752	-0.007367	-0.902211
03226		4.751766	-1.646254	8.302218	-0.000940	-0.003077	0.005450	-0.631836	0.435547	-0.271240	0.336959	-0.269680	-0.007307	-0.902041
03227		4.767217	-1.661031	8.309395	-0.003310	-0.001832	0.003148	-0.627930	0.428711	-0.263672	0.337032	-0.269579	-0.007282	-0.902044
03228		4.745090	-1.668313	8.303534	0.002165	-0.000682	0.004094	-0.641113	0.431152	-0.270264	0.336908	-0.269561	-0.007286	-0.902096
03229		4.750618	-1.660637	8.306166	0.003038	0.000328	0.002993	-0.630127	0.435547	-0.271973	0.336671	-0.269481	-0.007369	-0.902208
03230		4.730411	-1.651257	8.325247	0.004887	-0.003125	0.001264	-0.635498	0.438965	-0.277100	0.336802	-0.269342	-0.007448	-0.902199
03231		4.741074	-1.648188	8.334448	0.005507	-0.005603	0.000826	-0.631592	0.430176	-0.265137	0.336975	-0.269170	-0.007572	-0.902185
03232		4.746056	-1.631538	8.316446	0.005104	-0.002479	-0.001483	-0.636230	0.435791	-0.263184	0.336807	-0.269169	-0.007645	-0.902248
03233		4.742407	-1.625613	8.309290	0.000139	-0.002630	0.002556	-0.643555	0.441406	-0.273926	0.336776	-0.269271	-0.007626	-0.902229
03234		4.750991	-1.637177	8.322925	-0.002814	-0.001255	0.004144	-0.632812	0.436279	-0.263184	0.336876	-0.269209	-0.007619	-0.902210
03235		4.739851	-1.630102	8.322174	-0.003973	0.001000	0.006028	-0.637695	0.437744	-0.272461	0.336947	-0.269265	-0.007516	-0.902167
03236		4.746189	-1.657945	8.311123	-0.003090	-0.001971	0.005344	-0.633789	0.441406	-0.268555	0.337028	-0.269198	-0.007499	-0.902158
03237		4.733663	-1.663331	8.314838	0.000290	0.001139	0.002788	-0.628418	0.433594	-0.263916	0.337244	-0.269146	-0.007462	-0.902093
03238		4.742124	-1.650578	8.333377	0.003082	-0.000025	0.000550	-0.635498	0.432861	-0.267334	0.337249	-0.269137	-0.007465	-0.902093
03239		4.736698	-1.636920	8.306050	-0.000082	-0.002489	0.000360	-0.635010	0.439209	-0.269043	0.337126	-0.269143	-0.007492	-0.902137
03240		4.719372	-1.647301	8.336138	-0.004449	-0.002346	0.004497	-0.638428	0.440186	-0.268066	0.337254	-0.269145	-0.007428	-0.902090
03241		4.694689	-1.683505	8.309412	-0.001869	-0.007349	0.000480	-0.629150	0.441650	-0.268311	0.337313	-0.269233	-0.007432	-0.902041
03242		4.714866	-1.647740	8.311646	0.003131	-0.009548	-0.000108	-0.628418	0.433350	-0.270264	0.337559	-0.269264	-0.007459	-0.901940
03243		4.733506	-1.648280	8.313675	-0.000389	-0.010028	-0.000107	-0.632812	0.425293	-0.268555	0.337553	-0.269255	-0.007501	-0.901944
03244		4.753574	-1.636567	8.311163	-0.002917	-0.009357	0.001884	-0.630371	0.428955	-0.262695	0.337244	-0.269290	-0.007555	-0.902049
03245		4.745497	-1.638978	8.300621	0.001476	-0.007869	0.000780	-0.634033	0.439941	-0.272705	0.337068	-0.269392	-0.007597	-0.902084
03246		4.753884	-1.639604	8.322703	-0.000908	-0.004638	0.003958	-0.630371	0.431152	-0.268555	0.337261	-0.269324	-0.007598	-0.902032
03247		4.744740	-1.665802	8.308027	-0.001638	-0.006281	0.001721	-0.628418	0.431396	-0.262695	0.337191	-0.269315	-0.007617	-0.902061
03248		4.731227	-1.649778	8.328925	0.000582	-0.006107	0.002417	-0.628662	0.433594	-0.273438	0.337139	-0.269394	-0.007617	-0.902057
03249		4.740375	-1.662908	8.313008	0.004467	-0.006403	0.001270	-0.640869	0.429688	-0.269775	0.337228	-0.269264	-0.007719	-0.902061
03250		4.714416	-1.629477	8.313242	0.003443	-0.005992	0.000770	-0.635254	0.437988	-0.269043	0.336963	-0.269268	-0.007843	-0.902158
03251		4.743561	-1.638455	8.316068	-0.000819	-0.009323	-0.000511	-0.633789	0.434570	-0.267822	0.337006	-0.269327	-0.007870	-0.902124
03252		4.745522	-1.638595	8.314922	0.000426	-0.009876	0.002182	-0.633301	0.435547	-0.262207	0.337003	-0.269391	-0.007912	-0.902106
03253		4.746659	-1.628503	8.322457	-0.002801	-0.012410	0.000448	-0.632080	0.433105	-0.269531	0.336962	-0.269597	-0.007894	-0.902060
03254		4.740421	-1.641994	8.302494	-0.004627	-0.011728	0.001643	-0.634521	0.434570	-0.270752	0.336944	-0.269652	-0.007906	-0.902050
03255		4.729193	-1.660756	8.309011	-0.005372	-0.014581	0.000356	-0.638184	0.436035	-0.269043	0.336920	-0.269735	-0.007931	-0.902034
03256		4.745611	-1.630960	8.336856	-0.003448	-0.015545	-0.001739	-0.633789	0.439941	-0.268799	0.336847	-0.269873	-0.007982	-0.902019
03257		4.748718	-1.655715	8.330136	-0.007731	-0.018103	0.003409	-0.634521	0.433838	-0.275635	0.336993	-0.270041	-0.007943	-0.901915
03258		4.756069	-1.665036	8.305536	-0.002714	-0.017884	0.000905	-0.635010	0.439697	-0.269043	0.337008	-0.270052	-0.008046	-0.901905
03259		4.748673	-1.633478	8.307606	-0.001472	-0.012458	-0.002705	-0.633545	0.428711	-0.269043	0.337085	-0.270126	-0.008083	-0.901854
03260		4.736494	-1.641115	8.323107	-0.004780	-0.014289	0.000446	-0.626221	0.433594	-0.263672	0.336919	-0.270201	-0.008133	-0.901893
03261		4.746850	-1.645112	8.314448	-0.005188	-0.020337	-0.000088	-0.631836	0.431641	-0.266113	0.336955	-0.270407	-0.008129	-0.901818
03262		4.751301	-1.646584	8.311614	-0.008298	-0.022731	0.001267	-0.636475	0.442383	-0.263428	0.336875	-0.270631	-0.008137	-0.901780
03263		4.774985	-1.646638	8.298382	-0.006928	-0.021147	0.001157	-0.640869	0.440186	-0.260986	0.336992	-0.270917	-0.008099	-0.901651
03264		4.744436	-1.659593	8.294038	-0.009133	-0.018901	-0.001437	-0.629150	0.438965	-0.263672	0.336938	-0.271238	-0.008051	-0.901575
03265		4.752002	-1.656279	8.307003	-0.008872	-0.023376	-0.001285	-0.636230	0.435059	-0.265625	0.337042	-0.271490	-0.008012	-0.901461
03266		4.775758	-1.623183	8.306588	-0.014262	-0.028017	0.003719	-0.643311	0.438721	-0.256592	0.337003	-0.271805	-0.007969	-0.901381
03267		4.763515	-1.696334	8.286100	-0.020016	-0.025456	-0.003800	-0.639893	0.434570	-0.264404	0.336806	-0.272299	-0.007837	-0.901307
03268		4.819771	-1.631930	8.304963	-0.014010	-0.024531	0.003052	-0.636719	0.437256	-0.255859	0.336710	-0.272587	-0.007801	-0.901256
03269		4.806515	-1.646951	8.303026	-0.011409	-0.022709	0.000693	-0.636475	0.434082	-0.270264	0.336640	-0.272965	-0.007724	-0.901168
03270		4.806608	-1.677771	8.280029	-0.008878	-0.013437	0.003373	-0.631836	0.441650	-0.271484	0.336648	-0.272974	-0.007726	-0.901162
03271		4.800396	-1.668665	8.264565	-0.003837	-0.010026	0.005396	-0.631348	0.439453	-0.266357	0.336924	-0.272897	-0.007713	-0.901082
03272		4.791539	-1.659026	8.292248	-0.002867	-0.005312	0.003001	-0.634033	0.441895	-0.266846	0.337091	-0.272841	-0.007684	-0.901037
03273		4.790192	-1.662569	8.304728	-0.002452	-0.007230	0.004344	-0.642578	0.437012	-0.266113	0.337298	-0.272816	-0.007663	-0.900968
03274		4.794820	-1.671676	8.281560	-0.003498	-0.005258	0.005346	-0.639404	0.435059	-0.264160	0.337305	-0.272816	-0.007671	-0.900965
03275		4.794371	-1.662218	8.289972	-0.000650	-0.002369	0.004238	-0.639404	0.434814	-0.260010	0.337286	-0.272784	-0.007690	-0.900982
03276		4.758934	-1.663831	8.297088	-0.002112	-0.002461	0.004294	-0.632568	0.438232	-0.265869	0.337236	-0.272824	-0.007674	-0.900989
03277		4.748493	-1.679783	8.291371	-0.002097	-0.008004	0.003193	-0.639160	0.433350	-0.263672	0.337345	-0.272808	-0.007672	-0.900952
03278		4.794135	-1.669749	8.271901	-0.002611	-0.009788	0.003143	-0.641113	0.442871	-0.265869	0.337268	-0.272870	-0.007709	-0.900962
03279		4.781301	-1.654576	8.292601	-0.004846	-0.007190	0.003006	-0.631104	0.434082	-0.265137	0.337383	-0.272904	-0.007682	-0.900909
03280		4.786487	-1.685074	8.293801	-0.006144	-0.007495	0.003709	-0.640381	0.444824	-0.259766	0.337398	-0.272894	-0.007641	-0.900907
03281		4.776295	-1.667914	8.300969	-0.005384	-0.011399	0.004846	-0.633545	0.440186	-0.261475	0.337545	-0.273070	-0.007582	-0.900799
03282		4.800155	-1.686360	8.300344	-0.005034	-0.009401	0.004248	-0.635742	0.435547	-0.259277	0.337653	-0.273150	-0.007526	-0.900735
03283		4.776653	-1.675746	8.282489	-0.003290	-0.007378	0.002048	-0.640381	0.438232	-0.258789	0.337615	-0.273232	-0.007510	-0.900724
03284		4.791441	-1.669571	8.306599	-0.003274	-0.008937	0.000550	-0.637207	0.443848	-0.266602	0.337581	-0.273361	-0.007511	-0.900698
03285		4.789345	-1.664980	8.298307	-0.003472	-0.012360	0.002738	-0.641113	0.444336	-0.260986	0.337740	-0.273408	-0.007511	-0.900624
03286		4.787173	-1.684420	8.285093	-0.006669	-0.013264	0.004047	-0.637695	0.437256	-0.270508	0.337864	-0.273578	-0.007468	-0.900526
03287		4.783168	-1.683003	8.289702	-0.003990	-0.014145	0.002684	-0.640625	0.442383	-0.260742	0.337897	-0.273575	-0.007521	-0.900514
03288		4.786824	-1.694423	8.279000	-0.003875	-0.012000	-0.000105	-0.634521	0.435059	-0.259521	0.337950	-0.273711	-0.007527	-0.900453
03289		4.790210	-1.671415	8.281810	-0.000697	-0.016293	-0.000083	-0.635986	0.435303	-0.265625	0.337897	-0.273855	-0.007587	-0.900428
03290		4.816690	-1.652352	8.281136	-0.004151	-0.009949	0.001644	-0.636963	0.440918	-0.263184	0.337875	-0.273859	-0.007606	-0.900436
03291		4.799024	-1.678941	8.285623	-0.006666	-0.009281	0.003653	-0.626953	0.441406	-0.264404	0.337960	-0.273915	-0.007557	-0.900387
03292		4.786189	-1.700743	8.263369	-0.006241	-0.009988	0.004047	-0.630371	0.437744	-0.263428	0.338111	-0.273918	-0.007474	-0.900330
03293		4.786060	-1.681094	8.280005	-0.002350	-0.009072	0.001932	-0.634033	0.437988	-0.260742	0.338156	-0.273914	-0.007467	-0.900314
03294		4.799307	-1.666841	8.283764	-0.002787	-0.009578	0.002481	-0.637939	0.437744	-0.259766	0.338185	-0.273971	-0.007460	-0.900286
03295		4.798999	-1.704295	8.282388	-0.003391	-0.007099	0.002940	-0.632812	0.441406	-0.268799	0.338189	-0.274030	-0.007449	-0.900267
03296		4.815236	-1.697877	8.264060	-0.000808	-0.007702	0.002473	-0.630127	0.447510	-0.261963	0.338322	-0.273946	-0.007469	-0.900242
03297		4.811836	-1.679976	8.294719	0.000475	-0.003067	0.003824	-0.635498	0.434570	-0.256836	0.338586	-0.273901	-0.007423	-0.900157
03298		4.784097	-1.693886	8.286747	0.003279	-0.000589	-0.001269	-0.637207	0.437012	-0.266602	0.338498	-0.273883	-0.007466	-0.900195
03299		4.794603	-1.691139	8.295927	0.003341	-0.004508	0.000662	-0.636475	0.441895	-0.265625	0.338503	-0.273788	-0.007551	-0.900221
03300		4.808355	-1.662558	8.296125	0.002480	-0.004307	0.000818	-0.639893	0.431396	-0.264160	0.338607	-0.273717	-0.007602	-0.900204
03301		4.806539	-1.677625	8.271087	0.003316	-0.001391	0.003661	-0.628906	0.437744	-0.268555	0.338516	-0.273625	-0.007682	-0.900265
03302		4.811914	-1.669853	8.273817	0.002901	0.003300	0.002881	-0.629639	0.441162	-0.262207	0.338608	-0.273395	-0.007692	-0.900300
03303		4.780288	-1.686585	8.280000	0.001508	0.006045	0.005041	-0.636475	0.437500	-0.261719	0.338764	-0.273239	-0.007638	-0.900289
03304		4.756922	-1.680395	8.313335	0.002642	0.001022	0.002577	-0.630371	0.436523	-0.265625	0.338784	-0.273164	-0.007660	-0.900305
03305		4.802172	-1.680396	8.285524	-0.001954	-0.006661	0.005324	-0.634766	0.438721	-0.266113	0.338837	-0.273119	-0.007648	-0.900298
03306		4.792062	-1.696466	8.279583	-0.002969	-0.007805	0.003334	-0.638672	0.435547	-0.261719	0.338890	-0.273108	-0.007648	-0.900282
03307		4.799900	-1.699703	8.272354	0.003576	-0.004656	0.002851	-0.638428	0.435547	-0.267334	0.338860	-0.273099	-0.007716	-0.900295
03308		4.789549	-1.667022	8.276702	0.005849	0.003135	0.000319	-0.637207	0.441895	-0.265869	0.338834	-0.272919	-0.007805	-0.900359
03309		4.766170	-1.683536	8.305329	0.003067	0.000314	0.002969	-0.639648	0.434814	-0.268555	0.338956	-0.272815	-0.007838	-0.900344
03310		4.762470	-1.677824	8.298195	0.002620	-0.006947	0.003349	-0.634766	0.431885	-0.254395	0.338938	-0.272757	-0.007931	-0.900368
03311		4.795225	-1.671717	8.282900	0.000462	-0.007050	0.004210	-0.635010	0.437988	-0.262939	0.338828	-0.272866	-0.007931	-0.900376
03312		4.781459	-1.691813	8.261530	0.002124	-0.003535	0.001967	-0.630615	0.438232	-0.262451	0.338857	-0.272831	-0.007963	-0.900375
03313		4.780571	-1.704196	8.265708	0.005153	-0.002420	0.000006	-0.635254	0.438232	-0.258545	0.338901	-0.272762	-0.008013	-0.900379
03314		4.790125	-1.667045	8.288835	0.006368	0.002148	-0.000188	-0.630371	0.433594	-0.268066	0.338902	-0.272704	-0.008057	-0.900396
03315		4.786671	-1.658323	8.311372	0.002642	-0.001750	0.002019	-0.636230	0.431152	-0.271729	0.338900	-0.272563	-0.008103	-0.900439
03316		4.776944	-1.673007	8.263821	0.002289	-0.000977	0.003169	-0.637939	0.434570	-0.270264	0.338851	-0.272389	-0.008176	-0.900509
03317		4.791904	-1.629782	8.289303	-0.001225	0.002534	0.002805	-0.631104	0.439941	-0.264648	0.338836	-0.272225	-0.008186	-0.900565
03318		4.759887	-1.694558	8.285746	-0.005293	0.000623	0.005220	-0.635254	0.429688	-0.268311	0.338948	-0.272158	-0.008094	-0.900544
03319		4.757851	-1.675634	8.303360	-0.006779	-0.001893	0.007165	-0.632080	0.442627	-0.268555	0.338868	-0.272077	-0.008037	-0.900599
03320		4.759354	-1.688168	8.293648	-0.006168	-0.005931	0.005206	-0.639404	0.437256	-0.259521	0.339041	-0.272051	-0.007978	-0.900542
03321		4.784930	-1.704053	8.279938	-0.004177	-0.008387	0.003141	-0.635254	0.436768	-0.263428	0.338985	-0.272166	-0.007946	-0.900528
03322		4.761274	-1.680291	8.300456	-0.002279	-0.007791	0.002531	-0.630859	0.433105	-0.255859	0.338971	-0.272203	-0.007944	-0.900522
03323		4.774453	-1.666280	8.304212	-0.005029	-0.009744	0.001797	-0.639160	0.436523	-0.261230	0.338851	-0.272340	-0.007883	-0.900527
03324		4.785869	-1.689613	8.307430	-0.008850	-0.010590	0.005457	-0.636230	0.442871	-0.266602	0.338801	-0.272471	-0.007807	-0.900507
03325		4.782625	-1.688483	8.269872	-0.004629	-0.010106	0.004629	-0.637451	0.436523	-0.257812	0.338927	-0.272515	-0.007786	-0.900446
03326		4.757130	-1.701321	8.290085	-0.002447	-0.007578	0.001882	-0.630615	0.442627	-0.266357	0.338848	-0.272614	-0.007763	-0.900446
03327		4.788298	-1.674390	8.292528	0.001359	-0.007944	-0.000838	-0.636475	0.446045	-0.270020	0.338964	-0.272590	-0.007807	-0.900410
03328		4.778717	-1.665949	8.291416	-0.001821	-0.004860	0.000095	-0.634277	0.438232	-0.268555	0.339120	-0.272528	-0.007821	-0.900369
03329		4.773637	-1.684697	8.321704	-0.001773	-0.007220	0.003521	-0.642334	0.438721	-0.267578	0.339180	-0.272489	-0.007838	-0.900358
03330		4.776103	-1.708538	8.273534	-0.001070	-0.008766	0.001218	-0.630859	0.430908	-0.262939	0.339175	-0.272503	-0.007892	-0.900356
03331		4.772244	-1.703326	8.308151	0.001677	-0.009586	0.001392	-0.634033	0.437256	-0.265869	0.339078	-0.272515	-0.007944	-0.900388
03332		4.791661	-1.669696	8.281110	0.003163	-0.007069	-0.000553	-0.634033	0.430908	-0.266846	0.339080	-0.272482	-0.008019	-0.900397
03333		4.781040	-1.650170	8.289190	0.002565	-0.004590	-0.000090	-0.640625	0.438965	-0.263184	0.338981	-0.272401	-0.008090	-0.900458
03334		4.757894	-1.693379	8.282941	-0.003051	-0.007869	0.001785	-0.634277	0.444336	-0.261475	0.338960	-0.272459	-0.008085	-0.900448
03335		4.782755	-1.697669	8.278233	0.000568	-0.007677	0.000859	-0.633057	0.437744	-0.258057	0.339061	-0.272507	-0.008092	-0.900396
03336		4.775863	-1.673741	8.301826	0.001594	-0.008093	0.001346	-0.628906	0.442627	-0.260986	0.339044	-0.272576	-0.008105	-0.900381
03337		4.797146	-1.682272	8.281550	0.001028	-0.004746	-0.001573	-0.633545	0.434814	-0.258057	0.339120	-0.272573	-0.008106	-0.900353
03338		4.773801	-1.667679	8.293826	0.001353	-0.003615	0.001218	-0.639648	0.447510	-0.266113	0.339049	-0.272588	-0.008105	-0.900376
03339		4.769022	-1.675240	8.290802	-0.000207	-0.006197	0.001618	-0.633301	0.435303	-0.267334	0.339202	-0.272592	-0.008121	-0.900316
03340		4.778338	-1.665377	8.279163	-0.000374	-0.005983	0.000973	-0.636963	0.440674	-0.257812	0.339190	-0.272540	-0.008153	-0.900336
03341		4.777512	-1.702061	8.278204	0.000727	-0.006333	0.003003	-0.627686	0.437256	-0.267090	0.339215	-0.272612	-0.008146	-0.900305
03342		4.757849	-1.682518	8.306143	0.002913	-0.005364	-0.001245	-0.633545	0.441650	-0.268799	0.339251	-0.272528	-0.008203	-0.900317
03343		4.774227	-1.662188	8.326080	0.000812	-0.009384	0.001544	-0.634766	0.436279	-0.262207	0.339362	-0.272508	-0.008256	-0.900280
03344		4.786085	-1.673439	8.295998	-0.002383	-0.010284	0.002863	-0.633301	0.442139	-0.259521	0.339339	-0.272576	-0.008253	-0.900269
03345		4.775542	-1.712543	8.285488	-0.000725	-0.005210	0.002124	-0.636963	0.437256	-0.264160	0.339404	-0.272612	-0.008228	-0.900233
03346		4.789491	-1.684363	8.285469	0.003588	-0.005007	0.000391	-0.638184	0.433105	-0.260010	0.339391	-0.272581	-0.008290	-0.900247
03347		4.759381	-1.689902	8.299545	0.002554	-0.007362	-0.000656	-0.639648	0.438232	-0.270508	0.339263	-0.272619	-0.008344	-0.900283
03348		4.767107	-1.670874	8.267716	0.004710	-0.007261	-0.001523	-0.636230	0.434814	-0.256104	0.339278	-0.272552	-0.008467	-0.900297
03349		4.787793	-1.655182	8.294634	0.005146	-0.006755	-0.002073	-0.640137	0.434570	-0.257080	0.339158	-0.272610	-0.008525	-0.900324
03350		4.773283	-1.663979	8.282320	0.000496	-0.004972	-0.000128	-0.640625	0.433838	-0.270020	0.339029	-0.272668	-0.008528	-0.900355
03351		4.780134	-1.656486	8.284125	-0.000542	-0.005769	0.000327	-0.640869	0.441162	-0.263184	0.338985	-0.272606	-0.008586	-0.900390
03352		4.771667	-1.679963	8.298730	-0.002520	-0.004872	0.000898	-0.633545	0.437500	-0.261475	0.338995	-0.272627	-0.008568	-0.900379
03353		4.772940	-1.680426	8.297905	-0.000899	-0.007768	0.000918	-0.626465	0.438477	-0.265625	0.338984	-0.272664	-0.008566	-0.900373
03354		4.797871	-1.684556	8.293112	-0.001744	-0.007912	-0.001366	-0.634766	0.437988	-0.265137	0.339029	-0.272645	-0.008571	-0.900361
03355		4.791547	-1.650282	8.283035	-0.000642	-0.008262	0.000663	-0.642334	0.435791	-0.264893	0.339043	-0.272653	-0.008594	-0.900353
03356		4.782340	-1.663565	8.306499	-0.003562	-0.004111	0.002854	-0.630859	0.429443	-0.265869	0.339001	-0.272646	-0.008574	-0.900371
03357		4.761802	-1.681418	8.291602	-0.001506	-0.006501	0.002323	-0.628906	0.437256	-0.260742	0.338934	-0.272604	-0.008585	-0.900409
03358		4.784806	-1.664668	8.304858	0.000986	-0.008386	0.001241	-0.635010	0.434814	-0.270020	0.338952	-0.272633	-0.008596	-0.900394
03359		4.795286	-1.664841	8.284106	0.002369	-0.006804	0.001135	-0.630615	0.439453	-0.263916	0.338975	-0.272559	-0.008675	-0.900407
03360		4.788941	-1.651435	8.298971	0.000044	-0.005132	0.002861	-0.641357	0.439941	-0.264648	0.339058	-0.272534	-0.008671	-0.900383
03361		4.778816	-1.677562	8.284685	-0.003117	-0.000833	0.002866	-0.632324	0.437256	-0.269531	0.339076	-0.272496	-0.008630	-0.900388
03362		4.773102	-1.651775	8.295519	-0.000369	-0.003212	0.001530	-0.641846	0.435791	-0.253662	0.339138	-0.272398	-0.008650	-0.900394
03363		4.749494	-1.695382	8.289543	-0.002625	-0.005805	0.002735	-0.636719	0.439453	-0.264893	0.339006	-0.272515	-0.008586	-0.900409
03364		4.780496	-1.669117	8.291795	-0.002802	-0.008363	0.001528	-0.635986	0.443604	-0.260742	0.339030	-0.272545	-0.008580	-0.900391
03365		4.778636	-1.674784	8.274933	-0.002623	-0.007364	0.001232	-0.635010	0.435303	-0.265625	0.339080	-0.272608	-0.008545	-0.900354
03366		4.775482	-1.680629	8.300676	-0.002457	-0.007578	0.001876	-0.634521	0.431885	-0.263916	0.339064	-0.272607	-0.008546	-0.900360
03367		4.785995	-1.681620	8.279716	-0.001173	-0.008488	0.002105	-0.621094	0.437012	-0.264893	0.338996	-0.272619	-0.008558	-0.900382
03368		4.775751	-1.662962	8.287508	0.001071	-0.007108	0.001839	-0.632812	0.432861	-0.265381	0.339097	-0.272573	-0.008577	-0.900357
03369		4.774764	-1.665958	8.300031	-0.003139	-0.006377	0.001740	-0.631104	0.437012	-0.271729	0.339050	-0.272554	-0.008562	-0.900381
03370		4.782643	-1.669803	8.292564	-0.002805	-0.006805	0.003028	-0.631592	0.446533	-0.264893	0.339146	-0.272484	-0.008577	-0.900366
03371		4.775995	-1.680912	8.302478	-0.003587	-0.008096	0.003228	-0.629150	0.442139	-0.263184	0.339325	-0.272514	-0.008546	-0.900290
03372		4.775835	-1.673924	8.281009	-0.003600	-0.010868	0.002663	-0.639893	0.433838	-0.265625	0.339429	-0.272577	-0.008522	-0.900232
03373		4.789194	-1.660017	8.284592	-0.003588	-0.008096	0.003226	-0.632324	0.440918	-0.263184	0.339362	-0.272596	-0.008510	-0.900251
03374		4.774459	-1.681278	8.305452	-0.003833	-0.006389	0.002542	-0.634521	0.438477	-0.265869	0.339425	-0.272613	-0.008469	-0.900223
03375		4.775085	-1.661346	8.279973	-0.004861	-0.005972	0.002059	-0.637207	0.437988	-0.271240	0.339446	-0.272606	-0.008431	-0.900217
03376		4.792192	-1.697728	8.310556	-0.004449	-0.007894	0.003385	-0.632080	0.442139	-0.258545	0.339496	-0.272575	-0.008429	-0.900208
03377		4.781830	-1.669221	8.284901	-0.001935	-0.004236	0.003429	-0.630127	0.443604	-0.269043	0.339564	-0.272604	-0.008376	-0.900174
03378		4.787036	-1.675702	8.290995	-0.003321	-0.005818	0.003534	-0.632080	0.430908	-0.262207	0.339727	-0.272559	-0.008360	-0.900126
03379		4.792463	-1.682159	8.296967	-0.001434	-0.006438	0.003856	-0.638672	0.435303	-0.256836	0.339632	-0.272556	-0.008335	-0.900163
03380		4.774722	-1.684464	8.306830	-0.001346	-0.006717	0.002957	-0.633545	0.443115	-0.268311	0.339534	-0.272626	-0.008299	-0.900179
03381		4.779803	-1.669338	8.288216	-0.000398	-0.007199	0.001897	-0.629395	0.436279	-0.266846	0.339658	-0.272598	-0.008328	-0.900141
03382		4.773280	-1.679935	8.298176	-0.001873	-0.008502	0.002900	-0.638672	0.435547	-0.265625	0.339688	-0.272582	-0.008330	-0.900134
03383		4.782055	-1.660408	8.295140	-0.004788	-0.007465	0.002096	-0.634521	0.443604	-0.256104	0.339629	-0.272597	-0.008300	-0.900152
03384		4.778260	-1.703076	8.277788	-0.004300	-0.010881	0.003458	-0.634521	0.440430	-0.270020	0.339676	-0.272737	-0.008242	-0.900093
03385		4.791931	-1.688995	8.281226	-0.001454	-0.010768	0.001781	-0.637695	0.444336	-0.272949	0.339755	-0.272734	-0.008282	-0.900063
03386		4.786086	-1.655430	8.270833	-0.005073	-0.010957	0.002719	-0.635010	0.433838	-0.261719	0.339895	-0.272737	-0.008296	-0.900009
03387		4.778779	-1.680256	8.284540	-0.007665	-0.011564	0.004139	-0.627686	0.436279	-0.258301	0.339812	-0.272831	-0.008223	-0.900013
03388		4.779288	-1.695173	8.287389	-0.006099	-0.008983	0.003740	-0.635986	0.444092	-0.258789	0.339786	-0.272905	-0.008139	-0.900001
03389		4.778517	-1.678469	8.274647	-0.007928	-0.012628	0.002887	-0.634521	0.437744	-0.260254	0.339831	-0.273054	-0.008066	-0.899939
03390		4.786021	-1.696502	8.270625	-0.008440	-0.011641	0.003397	-0.631104	0.427979	-0.260986	0.339795	-0.273165	-0.007985	-0.899920
03391		4.786226	-1.701319	8.282124	-0.008802	-0.013640	0.003981	-0.629395	0.442383	-0.262207	0.339626	-0.273266	-0.007901	-0.899954
03392		4.785315	-1.707727	8.264495	-0.002595	-0.012845	0.001618	-0.630127	0.428711	-0.266113	0.339707	-0.273342	-0.007906	-0.899900
03393		4.789833	-1.716595	8.283093	-0.002670	-0.011352	0.001580	-0.629150	0.433594	-0.264893	0.339590	-0.273344	-0.007914	-0.899944
03394		4.802942	-1.681166	8.262011	-0.002491	-0.010352	0.001287	-0.629639	0.448242	-0.260254	0.339555	-0.273351	-0.007920	-0.899955
03395		4.789782	-1.712751	8.273487	-0.004310	-0.010883	0.003445	-0.631348	0.442627	-0.266846	0.339737	-0.273440	-0.007890	-0.899860
03396		4.796849	-1.695930	8.283509	-0.002243	-0.010504	0.003470	-0.647461	0.429199	-0.264404	0.339869	-0.273452	-0.007909	-0.899806
03397		4.799679	-1.707272	8.273109	-0.003016	-0.010580	0.002732	-0.633057	0.443115	-0.255371	0.339650	-0.273495	-0.007899	-0.899875
03398		4.780466	-1.712160	8.296026	-0.000936	-0.008986	0.001822	-0.630859	0.438965	-0.263916	0.339680	-0.273583	-0.007878	-0.899838
03399		4.798200	-1.691969	8.273116	0.002089	-0.007873	-0.000150	-0.633301	0.432617	-0.269775	0.339710	-0.273561	-0.007930	-0.899832
03400		4.779405	-1.706446	8.287402	-0.000489	-0.007265	0.000338	-0.636719	0.437988	-0.252686	0.339663	-0.273489	-0.007971	-0.899872
03401		4.800505	-1.681729	8.280319	-0.001616	-0.007784	0.001692	-0.637451	0.438965	-0.260986	0.339561	-0.273585	-0.007918	-0.899881
03402		4.789163	-1.709940	8.278829	0.000275	-0.008746	-0.000433	-0.638184	0.434326	-0.262695	0.339518	-0.273618	-0.007940	-0.899888
03403		4.791494	-1.686350	8.282571	0.000974	-0.007177	0.000268	-0.631104	0.441895	-0.261963	0.339424	-0.273608	-0.007965	-0.899926
03404		4.779594	-1.714405	8.281441	-0.000724	-0.003999	0.001167	-0.636719	0.439697	-0.257568	0.339496	-0.273577	-0.007959	-0.899908
03405		4.792221	-1.699636	8.285617	-0.000141	-0.006481	0.000687	-0.632568	0.439453	-0.263428	0.339453	-0.273613	-0.007945	-0.899914
03406		4.776050	-1.688269	8.291331	0.000463	-0.006190	0.000781	-0.632324	0.440430	-0.263428	0.339488	-0.273588	-0.007967	-0.899908
03407		4.797561	-1.673643	8.275473	0.000982	-0.005620	0.001774	-0.630127	0.444336	-0.263428	0.339551	-0.273556	-0.007990	-0.899894
03408		4.784787	-1.691221	8.283451	0.000389	-0.004696	0.000746	-0.635986	0.443604	-0.262207	0.339675	-0.273519	-0.008010	-0.899858
03409		4.786590	-1.701847	8.273780	-0.001255	-0.005784	0.001107	-0.637207	0.437744	-0.261963	0.339736	-0.273522	-0.008007	-0.899834
03410		4.798817	-1.710483	8.273124	0.001309	-0.007608	0.001550	-0.633789	0.437012	-0.260498	0.339709	-0.273527	-0.008030	-0.899842
03411		4.788656	-1.691744	8.281109	-0.001014	-0.007493	0.001783	-0.633789	0.441406	-0.265137	0.339675	-0.273545	-0.008019	-0.899850
03412		4.798775	-1.692312	8.260259	-0.000481	-0.006050	-0.000599	-0.631104	0.441650	-0.264404	0.339720	-0.273516	-0.008043	-0.899841
03413		4.785533	-1.699523	8.277100	-0.000143	-0.006481	0.000685	-0.629395	0.437500	-0.258057	0.339796	-0.273491	-0.008065	-0.899820
03414		4.793567	-1.702176	8.269673	0.002773	-0.007862	-0.000964	-0.638184	0.439941	-0.258057	0.339760	-0.273509	-0.008097	-0.899828
03415		4.802278	-1.691544	8.300555	0.003994	-0.006065	-0.001712	-0.636475	0.442627	-0.254150	0.339707	-0.273522	-0.008139	-0.899844
03416		4.805374	-1.688007	8.286834	0.003339	-0.002090	-0.001265	-0.633057	0.445801	-0.267334	0.339682	-0.273524	-0.008142	-0.899852
03417		4.785225	-1.680539	8.277207	0.005106	-0.006420	0.000307	-0.637451	0.427246	-0.266602	0.339841	-0.273466	-0.008240	-0.899809
03418		4.803172	-1.714320	8.265586	0.004948	-0.004990	-0.001269	-0.635742	0.437012	-0.262451	0.339662	-0.273373	-0.008307	-0.899905
03419		4.802705	-1.692170	8.283302	0.006157	-0.004408	-0.001083	-0.636475	0.431885	-0.259766	0.339627	-0.273316	-0.008379	-0.899934
03420		4.802414	-1.669696	8.258792	0.005854	0.000352	-0.000286	-0.642090	0.432129	-0.263184	0.339498	-0.273220	-0.008405	-0.900012
03421		4.777441	-1.688823	8.301109	0.001052	0.002354	0.001051	-0.632080	0.438721	-0.258789	0.339366	-0.273108	-0.008378	-0.900096
03422		4.762905	-1.685068	8.285239	0.001355	-0.002406	0.000255	-0.636719	0.439697	-0.265381	0.339350	-0.273077	-0.008367	-0.900111
03423		4.780283	-1.686181	8.287349	-0.000991	-0.004720	0.002358	-0.634521	0.437256	-0.265625	0.339388	-0.273043	-0.008363	-0.900108
03424		4.786975	-1.679063	8.289149	-0.000302	-0.004708	0.001552	-0.632812	0.438477	-0.265137	0.339401	-0.272996	-0.008369	-0.900117
03425		4.798804	-1.677278	8.255109	-0.001426	-0.005226	0.002907	-0.633789	0.437744	-0.265381	0.339449	-0.272963	-0.008360	-0.900108
03426		4.793677	-1.696012	8.285765	-0.000883	-0.002227	0.002032	-0.644287	0.439697	-0.262695	0.339473	-0.272894	-0.008347	-0.900121
03427		4.786042	-1.672626	8.310130	-0.000883	-0.002227	0.002032	-0.635498	0.438232	-0.256348	0.339431	-0.272866	-0.008315	-0.900145
03428		4.771228	-1.693271	8.289177	-0.003471	-0.002832	0.003460	-0.637695	0.442383	-0.265137	0.339379	-0.272885	-0.008222	-0.900160
03429		4.769859	-1.696940	8.301883	-0.003072	-0.006314	0.003270	-0.636719	0.435791	-0.267578	0.339442	-0.272888	-0.008197	-0.900136
03430		4.798165	-1.686118	8.278992	-0.001634	-0.008999	0.002623	-0.632568	0.430664	-0.269043	0.339440	-0.272883	-0.008208	-0.900138
03431		4.793353	-1.683469	8.284568	0.000954	-0.008393	0.001194	-0.629395	0.436035	-0.264404	0.339400	-0.272834	-0.008255	-0.900167
03432		4.798276	-1.667995	8.266018	0.000036	-0.005139	0.002833	-0.634766	0.434814	-0.266602	0.339433	-0.272791	-0.008257	-0.900168
03433		4.778809	-1.683012	8.280705	-0.001585	-0.003796	0.001330	-0.635498	0.432129	-0.265381	0.339408	-0.272731	-0.008245	-0.900196
03434		4.773805	-1.701787	8.311299	-0.000907	-0.004657	0.003898	-0.635986	0.437256	-0.262939	0.339358	-0.272683	-0.008224	-0.900229
03435		4.791347	-1.692289	8.279711	0.002188	-0.005040	0.001953	-0.632812	0.433594	-0.281250	0.339343	-0.272655	-0.008239	-0.900243
03436		4.786324	-1.666068	8.290513	-0.000726	-0.003657	0.003606	-0.632812	0.436279	-0.256592	0.339484	-0.272482	-0.008308	-0.900242
03437		4.767944	-1.702311	8.287293	-0.003036	-0.002326	0.002911	-0.629395	0.436768	-0.266113	0.339411	-0.272485	-0.008216	-0.900269
03438		4.761377	-1.689620	8.302427	-0.000740	-0.005215	0.002097	-0.636475	0.436768	-0.258545	0.339458	-0.272440	-0.008221	-0.900265
03439		4.791386	-1.676296	8.266351	-0.003678	-0.006262	0.005616	-0.641357	0.435059	-0.263184	0.339407	-0.272483	-0.008135	-0.900272
03440		4.782361	-1.690310	8.289842	-0.003764	-0.006325	0.004075	-0.634766	0.442627	-0.261963	0.339318	-0.272499	-0.008069	-0.900301
03441		4.772112	-1.706091	8.284116	-0.000599	-0.008203	0.002162	-0.632812	0.439209	-0.261719	0.339364	-0.272534	-0.008066	-0.900274
03442		4.775196	-1.693372	8.278742	0.000429	-0.008622	0.002637	-0.627197	0.434814	-0.263672	0.339385	-0.272561	-0.008072	-0.900257
03443		4.794696	-1.681586	8.276030	0.000117	-0.005418	0.001930	-0.643555	0.437256	-0.258301	0.339401	-0.272523	-0.008077	-0.900262
03444		4.795696	-1.682012	8.275364	-0.001430	-0.005227	0.002903	-0.636719	0.435059	-0.267822	0.339273	-0.272556	-0.008009	-0.900301
03445		4.782656	-1.700098	8.283464	0.000824	-0.003508	0.005072	-0.641602	0.444580	-0.263184	0.339299	-0.272481	-0.008013	-0.900314
03446		4.781174	-1.702664	8.296481	0.003226	-0.004245	0.001492	-0.633789	0.433105	-0.252441	0.339327	-0.272460	-0.008036	-0.900310
03447		4.779114	-1.683544	8.284980	0.003309	-0.004524	0.000592	-0.631592	0.441895	-0.256836	0.339151	-0.272483	-0.008002	-0.900370
03448		4.779928	-1.683324	8.284555	-0.000125	-0.003709	0.001255	-0.638428	0.438721	-0.259766	0.339142	-0.272494	-0.007959	-0.900370
03449		4.786324	-1.676071	8.286552	0.000144	-0.002646	0.002506	-0.636963	0.439453	-0.267334	0.339083	-0.272476	-0.007915	-0.900398
03450		4.778148	-1.675898	8.306283	0.001172	-0.003065	0.002981	-0.641602	0.433105	-0.264404	0.339136	-0.272407	-0.007929	-0.900399
03451		4.781225	-1.683941	8.283682	0.000596	-0.000583	0.003465	-0.625732	0.436035	-0.259033	0.339048	-0.272328	-0.007895	-0.900456
03452		4.798073	-1.685000	8.286060	0.002988	-0.002194	0.003257	-0.637939	0.444092	-0.266846	0.339076	-0.272276	-0.007891	-0.900462
03453		4.773986	-1.693830	8.294324	0.001761	-0.004332	0.001564	-0.630615	0.444336	-0.269531	0.339146	-0.272234	-0.007919	-0.900448
03454		4.758270	-1.692616	8.291328	0.001831	-0.005826	0.001597	-0.629883	0.448975	-0.263184	0.339310	-0.272181	-0.007981	-0.900401
03455		4.776685	-1.703812	8.284234	0.001674	-0.004396	0.000023	-0.633789	0.438965	-0.266602	0.339447	-0.272163	-0.008009	-0.900355
03456		4.784623	-1.683126	8.281885	0.001607	-0.002559	0.002431	-0.641357	0.439209	-0.259277	0.339494	-0.272089	-0.008023	-0.900359
03457		4.763531	-1.677176	8.314847	-0.002278	-0.003807	0.002137	-0.632324	0.438477	-0.261230	0.339405	-0.272107	-0.007951	-0.900388
03458		4.770300	-1.704346	8.302801	-0.001798	-0.007226	0.003484	-0.629395	0.440430	-0.271484	0.339405	-0.272133	-0.007916	-0.900380
03459		4.766611	-1.688740	8.304220	0.000871	-0.006901	0.001153	-0.629395	0.435303	-0.261963	0.339530	-0.272076	-0.007977	-0.900350
03460		4.786680	-1.687306	8.292540	-0.000662	-0.005493	0.001195	-0.641602	0.437256	-0.262451	0.339497	-0.272064	-0.007959	-0.900366
03461		4.764360	-1.683954	8.296104	-0.002796	-0.004034	0.003585	-0.637207	0.431152	-0.265381	0.339425	-0.272062	-0.007890	-0.900395
03462		4.781799	-1.685801	8.297966	-0.001080	-0.004442	0.003252	-0.635254	0.434814	-0.259033	0.339343	-0.272020	-0.007858	-0.900439
03463		4.772314	-1.688357	8.288317	-0.001503	-0.003732	0.002869	-0.642578	0.437988	-0.262451	0.339249	-0.272018	-0.007792	-0.900475
03464		4.760131	-1.682968	8.301057	0.000370	-0.005571	0.004108	-0.634521	0.439697	-0.261230	0.339188	-0.272022	-0.007760	-0.900497
03465		4.784291	-1.687618	8.296160	-0.002122	-0.005237	0.003708	-0.628174	0.437988	-0.261963	0.339181	-0.272032	-0.007707	-0.900497
03466		4.782037	-1.669745	8.284521	-0.000545	-0.002658	0.003311	-0.632080	0.434326	-0.264404	0.339218	-0.271990	-0.007676	-0.900496
03467		4.765873	-1.680645	8.315138	-0.006312	-0.002938	0.005151	-0.635986	0.440918	-0.262939	0.339210	-0.271960	-0.007580	-0.900509
03468		4.747455	-1.706759	8.278205	-0.001953	-0.005453	0.004348	-0.636230	0.442627	-0.259521	0.339227	-0.271966	-0.007535	-0.900502
03469		4.774087	-1.685832	8.307039	-0.001789	-0.006011	0.002549	-0.638672	0.439453	-0.266113	0.339201	-0.272001	-0.007481	-0.900501
03470		4.774552	-1.676199	8.315261	-0.002477	-0.006022	0.003356	-0.632568	0.440430	-0.264160	0.339201	-0.271996	-0.007449	-0.900503
03471		4.770339	-1.695170	8.303095	-0.004010	-0.004613	0.003400	-0.631348	0.444824	-0.264404	0.339234	-0.271986	-0.007393	-0.900494
03472		4.766954	-1.690909	8.295527	-0.003432	-0.006755	0.005352	-0.629395	0.441406	-0.268799	0.339344	-0.272004	-0.007352	-0.900448
03473		4.773189	-1.674566	8.306005	-0.005740	-0.005420	0.004664	-0.634033	0.437988	-0.261963	0.339463	-0.271979	-0.007307	-0.900410
03474		4.763726	-1.712210	8.282304	-0.006429	-0.005432	0.005471	-0.626953	0.436768	-0.263428	0.339449	-0.272000	-0.007205	-0.900410
03475		4.775740	-1.688294	8.295207	-0.001533	-0.006165	0.004726	-0.634277	0.442627	-0.272949	0.339499	-0.271988	-0.007181	-0.900395
03476		4.770555	-1.696866	8.292240	-0.003807	-0.002057	0.004618	-0.641602	0.443359	-0.274902	0.339634	-0.271900	-0.007158	-0.900371
03477		4.755078	-1.707491	8.280187	-0.003590	-0.005324	0.003779	-0.637451	0.440918	-0.260986	0.339728	-0.271847	-0.007153	-0.900352
03478		4.753519	-1.700736	8.301725	-0.002243	-0.007733	0.004022	-0.636475	0.444824	-0.258545	0.339708	-0.271892	-0.007105	-0.900346
03479		4.789765	-1.690816	8.301206	-0.002666	-0.007023	0.003641	-0.635254	0.440430	-0.257568	0.339709	-0.271951	-0.007043	-0.900328
03480		4.747963	-1.702238	8.277312	-0.004463	-0.006335	0.004875	-0.638916	0.438232	-0.263184	0.339670	-0.272006	-0.006947	-0.900327
03481		4.751587	-1.711900	8.296359	-0.004921	-0.008397	0.003913	-0.631836	0.434082	-0.264648	0.339621	-0.272051	-0.006879	-0.900332
03482		4.774960	-1.685222	8.275518	0.000750	-0.009058	0.003898	-0.630859	0.442627	-0.262695	0.339611	-0.272054	-0.006893	-0.900335
03483		4.768748	-1.696034	8.285407	-0.004930	-0.008737	0.001473	-0.630615	0.442383	-0.258301	0.339628	-0.272103	-0.006847	-0.900314
03484		4.777627	-1.721520	8.302022	-0.004568	-0.007614	0.004263	-0.632324	0.442871	-0.262451	0.339637	-0.272163	-0.006769	-0.900293
03485		4.765186	-1.695596	8.289899	-0.002838	-0.006807	0.002997	-0.634277	0.445312	-0.263916	0.339668	-0.272184	-0.006731	-0.900276
03486		4.760383	-1.704140	8.286713	-0.004014	-0.004614	0.003395	-0.633301	0.445801	-0.262207	0.339723	-0.272182	-0.006676	-0.900256
03487		4.766548	-1.720839	8.283567	-0.000355	-0.007484	0.000953	-0.634766	0.444092	-0.265137	0.339758	-0.272207	-0.006676	-0.900235
03488		4.765533	-1.712957	8.305063	0.002033	-0.009098	0.000736	-0.631592	0.443604	-0.265869	0.339797	-0.272221	-0.006722	-0.900216
03489		4.759055	-1.711591	8.281755	0.004894	-0.007435	0.000554	-0.626709	0.436279	-0.263428	0.339864	-0.272195	-0.006800	-0.900198
03490		4.778758	-1.698854	8.279060	0.002312	-0.007160	-0.001381	-0.640381	0.435547	-0.258545	0.339838	-0.272173	-0.006842	-0.900214
03491		4.760701	-1.689382	8.298479	0.002165	-0.005388	-0.000510	-0.632080	0.445312	-0.259277	0.339693	-0.272176	-0.006832	-0.900268
03492		4.786478	-1.680192	8.289189	0.000184	-0.005700	0.001015	-0.642334	0.437012	-0.262451	0.339711	-0.272193	-0.006817	-0.900256
03493		4.769014	-1.681694	8.299468	0.001107	-0.007399	0.000875	-0.635010	0.440186	-0.265869	0.339615	-0.272205	-0.006817	-0.900289
03494		4.759487	-1.707186	8.284782	-0.001400	-0.008279	0.001409	-0.638184	0.440918	-0.260010	0.339620	-0.272215	-0.006818	-0.900284
03495		4.763115	-1.705113	8.312815	0.000290	-0.010245	-0.000440	-0.627441	0.439941	-0.260498	0.339548	-0.272278	-0.006822	-0.900292
03496		4.785007	-1.679954	8.305195	0.000791	-0.011234	-0.000961	-0.637695	0.438721	-0.263672	0.339535	-0.272332	-0.006852	-0.900280
03497		4.760980	-1.657242	8.297284	-0.000463	-0.008762	0.000339	-0.632080	0.441650	-0.258789	0.339485	-0.272355	-0.006856	-0.900292
03498		4.761145	-1.704850	8.286687	-0.004950	-0.009954	0.002400	-0.625244	0.436523	-0.267090	0.339464	-0.272437	-0.006793	-0.900276
03499		4.763194	-1.705882	8.285297	-0.003328	-0.010426	0.000521	-0.633789	0.433594	-0.268311	0.339499	-0.272452	-0.006805	-0.900258
03500		4.767175	-1.693459	8.279361	-0.002090	-0.014115	0.000146	-0.632324	0.438477	-0.258789	0.339460	-0.272500	-0.006839	-0.900257
03501		4.776870	-1.696900	8.270685	-0.002739	-0.017177	-0.000531	-0.635498	0.440186	-0.261475	0.339386	-0.272647	-0.006841	-0.900241
03502		4.794197	-1.690475	8.293544	-0.000800	-0.013814	-0.000575	-0.635986	0.438477	-0.264160	0.339339	-0.272737	-0.006861	-0.900231
03503		4.767006	-1.717069	8.289397	0.001720	-0.011718	-0.002041	-0.626465	0.431396	-0.262695	0.339290	-0.272775	-0.006918	-0.900238
03504		4.776290	-1.685493	8.295093	0.001627	-0.011780	-0.003581	-0.633301	0.439697	-0.260010	0.339214	-0.272799	-0.006982	-0.900259
03505		4.785128	-1.677697	8.295782	-0.001265	-0.015877	-0.001542	-0.638184	0.444336	-0.259521	0.339157	-0.272918	-0.007006	-0.900244
03506		4.778805	-1.690267	8.275698	-0.003510	-0.016035	-0.002194	-0.636475	0.446777	-0.266113	0.339090	-0.273063	-0.007002	-0.900225
03507		4.790936	-1.701643	8.287134	-0.001083	-0.014877	-0.001834	-0.636719	0.436035	-0.260986	0.339129	-0.273149	-0.007058	-0.900184
03508		4.789166	-1.685641	8.287635	-0.000663	-0.015588	-0.001457	-0.637207	0.441650	-0.270020	0.339036	-0.273252	-0.007087	-0.900188
03509		4.802711	-1.683939	8.294731	-0.002206	-0.015395	-0.000478	-0.642822	0.446045	-0.266846	0.339074	-0.273317	-0.007144	-0.900153
03510		4.793932	-1.699356	8.288270	-0.002599	-0.013128	0.000656	-0.629639	0.448975	-0.259766	0.339101	-0.273389	-0.007164	-0.900121
03511		4.810457	-1.692472	8.269105	0.000993	-0.008679	0.000245	-0.634766	0.440430	-0.268311	0.339187	-0.273426	-0.007195	-0.900077
03512		4.805653	-1.689616	8.274873	-0.001221	-0.007281	0.001110	-0.632080	0.438721	-0.264893	0.339234	-0.273400	-0.007216	-0.900067
03513		4.792226	-1.720458	8.286945	-0.000658	-0.009765	0.000612	-0.636230	0.438721	-0.262695	0.339249	-0.273412	-0.007242	-0.900058
03514		4.802953	-1.687163	8.279343	-0.000659	-0.009765	0.000611	-0.636963	0.440674	-0.262451	0.339225	-0.273441	-0.007253	-0.900057
03515		4.794299	-1.689206	8.269353	-0.000179	-0.006486	0.000650	-0.640137	0.438232	-0.262207	0.339218	-0.273437	-0.007256	-0.900061
03516		4.807232	-1.674638	8.273226	-0.001190	-0.005725	0.002623	-0.637939	0.445557	-0.259277	0.339189	-0.273429	-0.007230	-0.900075
03517		4.788676	-1.700388	8.278935	-0.002732	-0.005532	0.003605	-0.631348	0.435791	-0.258301	0.339224	-0.273451	-0.007181	-0.900056
03518		4.779517	-1.703117	8.269101	-0.002157	-0.006798	0.002180	-0.643066	0.438477	-0.256104	0.339182	-0.273467	-0.007142	-0.900067
03519		4.806515	-1.681675	8.255199	0.000305	-0.004084	0.004054	-0.634521	0.440430	-0.262939	0.339118	-0.273470	-0.007091	-0.900090
03520		4.796104	-1.707950	8.283473	-0.002221	-0.005303	0.002155	-0.627930	0.443848	-0.260254	0.339135	-0.273455	-0.007067	-0.900089
03521		4.796225	-1.697916	8.292070	0.001361	-0.002072	0.002669	-0.636719	0.439941	-0.254883	0.339215	-0.273402	-0.007067	-0.900075
03522		4.770048	-1.708874	8.271638	0.002384	-0.001616	-0.000229	-0.633789	0.441162	-0.268799	0.339147	-0.273371	-0.007048	-0.900110
03523		4.792768	-1.691727	8.284951	0.002172	-0.005050	0.001908	-0.635010	0.436523	-0.261719	0.339225	-0.273304	-0.007098	-0.900100
03524		4.806393	-1.697418	8.271048	0.001936	-0.003339	0.001245	-0.641357	0.441406	-0.269287	0.339198	-0.273251	-0.007103	-0.900127
03525		4.790585	-1.706461	8.259585	0.002058	-0.000843	0.000933	-0.635986	0.436768	-0.265869	0.339229	-0.273144	-0.007130	-0.900147
03526		4.783077	-1.682203	8.284548	0.003460	0.000736	0.000825	-0.635498	0.441162	-0.262939	0.339226	-0.273019	-0.007152	-0.900186
03527		4.775954	-1.702164	8.286601	0.002370	-0.002833	0.000696	-0.631592	0.430420	-0.268311	0.339239	-0.272963	-0.007169	-0.900198
03528		4.807058	-1.685670	8.279678	0.000209	-0.004145	0.002515	-0.637451	0.437744	-0.265137	0.339223	-0.272881	-0.007177	-0.900229
03529		4.788944	-1.687571	8.290443	-0.000538	-0.002662	0.003300	-0.633057	0.439209	-0.258301	0.339227	-0.272821	-0.007154	-0.900246
03530		4.787956	-1.701023	8.294464	0.000491	-0.003084	0.003767	-0.634521	0.443604	-0.262451	0.339229	-0.272796	-0.007121	-0.900253
03531		4.790300	-1.698568	8.280794	0.001016	-0.001639	0.001392	-0.639160	0.446045	-0.261719	0.339266	-0.272740	-0.007117	-0.900256
03532		4.794432	-1.693864	8.296367	0.000255	-0.001372	0.003103	-0.632080	0.442383	-0.257324	0.339311	-0.272697	-0.007090	-0.900252
03533		4.797632	-1.668305	8.287345	-0.002099	-0.002807	0.001844	-0.629639	0.438232	-0.270996	0.339307	-0.272690	-0.007034	-0.900256
03534		4.785660	-1.707664	8.277430	-0.004447	-0.005120	0.003949	-0.639648	0.443115	-0.257568	0.339383	-0.272638	-0.007008	-0.900243
03535		4.774517	-1.713271	8.280977	-0.002596	-0.007304	0.002728	-0.629639	0.444336	-0.260986	0.339360	-0.272692	-0.006956	-0.900236
03536		4.781158	-1.696197	8.291439	-0.002755	-0.005870	0.001164	-0.630859	0.436523	-0.253662	0.339397	-0.272704	-0.006928	-0.900219
03537		4.776032	-1.693267	8.297446	0.002818	-0.006596	-0.000420	-0.625977	0.442139	-0.270264	0.339316	-0.272726	-0.006932	-0.900243
03538		4.767217	-1.694892	8.287650	0.000049	-0.008198	0.001309	-0.635010	0.439941	-0.261963	0.339422	-0.272697	-0.006985	-0.900211
03539		4.783712	-1.698723	8.302278	-0.000657	-0.008548	-0.000320	-0.629150	0.435059	-0.268311	0.339392	-0.272722	-0.006989	-0.900215
03540		4.776977	-1.698125	8.278907	-0.000373	-0.007487	0.000932	-0.633545	0.442871	-0.260254	0.339397	-0.272688	-0.007013	-0.900223
03541		4.783036	-1.703632	8.284660	0.001415	-0.008175	-0.000315	-0.630127	0.441895	-0.262695	0.339399	-0.272713	-0.007039	-0.900214
03542		4.780251	-1.697509	8.277143	0.003486	-0.007802	-0.000310	-0.629883	0.445068	-0.260010	0.339431	-0.272707	-0.007098	-0.900204
03543		4.789195	-1.676281	8.274288	0.003486	-0.007803	-0.000310	-0.631592	0.436523	-0.265625	0.339479	-0.272721	-0.007154	-0.900181
03544		4.788849	-1.678345	8.286900	0.000819	-0.007248	-0.001330	-0.632324	0.443604	-0.264404	0.339446	-0.272698	-0.007185	-0.900200
03545		4.796646	-1.681150	8.279361	0.000420	-0.006197	0.000734	-0.638428	0.442383	-0.256592	0.339495	-0.272684	-0.007206	-0.900186
03546		4.801172	-1.699626	8.289553	0.001759	-0.008609	0.000959	-0.635742	0.443359	-0.266846	0.339472	-0.272736	-0.007216	-0.900179
03547		4.793590	-1.677980	8.284232	-0.000066	-0.009477	0.000692	-0.625488	0.443604	-0.259277	0.339512	-0.272751	-0.007250	-0.900159
03548		4.799794	-1.684466	8.289700	-0.006742	-0.008050	0.002718	-0.631348	0.444336	-0.259033	0.339563	-0.272808	-0.007183	-0.900123
03549		4.776381	-1.728739	8.283695	-0.004422	-0.008172	0.002459	-0.636475	0.440918	-0.261475	0.339601	-0.272864	-0.007137	-0.900092
03550		4.774593	-1.700335	8.280594	-0.000414	-0.009044	-0.000587	-0.635742	0.444580	-0.260010	0.339573	-0.272898	-0.007148	-0.900092
03551		4.795056	-1.698963	8.268277	-0.001692	-0.008127	-0.000789	-0.638184	0.438965	-0.255371	0.339573	-0.272940	-0.007144	-0.900079
03552		4.767728	-1.702695	8.269534	-0.001420	-0.008283	0.001387	-0.628906	0.434814	-0.263916	0.339515	-0.272999	-0.007110	-0.900083
03553		4.792279	-1.696724	8.272807	-0.000864	-0.010767	0.000884	-0.638916	0.447266	-0.262695	0.339484	-0.273025	-0.007123	-0.900088
03554		4.789435	-1.681020	8.273931	-0.000331	-0.010200	0.001873	-0.627930	0.446289	-0.257080	0.339542	-0.273077	-0.007144	-0.900050
03555		4.792028	-1.691722	8.263591	-0.000865	-0.010767	0.000882	-0.632812	0.435059	-0.269043	0.339597	-0.273154	-0.007156	-0.900005
03556		4.796198	-1.689728	8.291475	-0.000853	-0.009550	-0.000042	-0.633301	0.446533	-0.262207	0.339560	-0.273143	-0.007179	-0.900023
03557		4.789071	-1.678884	8.277059	-0.001422	-0.008283	0.001385	-0.632324	0.439453	-0.258789	0.339624	-0.273173	-0.007185	-0.899989
03558		4.795160	-1.684847	8.282695	-0.000988	-0.007777	0.000835	-0.638428	0.433350	-0.261963	0.339604	-0.273200	-0.007174	-0.899988
03559		4.791668	-1.713051	8.261466	0.001953	-0.006392	-0.000261	-0.635742	0.437988	-0.260254	0.339512	-0.273179	-0.007187	-0.900030
03560		4.793264	-1.678676	8.274673	0.003283	-0.004536	0.000531	-0.636475	0.439941	-0.251953	0.339483	-0.273145	-0.007210	-0.900051
03561		4.786349	-1.688469	8.285372	0.000107	-0.004208	0.000968	-0.631348	0.435059	-0.270996	0.339432	-0.273167	-0.007172	-0.900064
03562		4.787684	-1.688626	8.284569	-0.000147	-0.009200	0.001583	-0.635010	0.444336	-0.258545	0.339437	-0.273138	-0.007206	-0.900070
03563		4.795723	-1.691937	8.276748	-0.002019	-0.007355	0.000372	-0.640381	0.440918	-0.257812	0.339444	-0.273177	-0.007188	-0.900056
03564		4.786128	-1.683820	8.276076	-0.000762	-0.005220	0.002065	-0.633057	0.450439	-0.264160	0.339421	-0.273189	-0.007157	-0.900061
03565		4.785718	-1.697426	8.279744	-0.002052	-0.005521	0.002789	-0.637939	0.437500	-0.260986	0.339539	-0.273187	-0.007151	-0.900017
03566		4.788420	-1.685053	8.274499	-0.001673	-0.007789	0.001646	-0.635742	0.429688	-0.266357	0.339498	-0.273208	-0.007128	-0.900026
03567		4.786376	-1.690993	8.300224	-0.002904	-0.009585	0.002392	-0.635254	0.440430	-0.260986	0.339415	-0.273214	-0.007102	-0.900056
03568		4.806639	-1.690368	8.287788	-0.002602	-0.007305	0.002721	-0.637207	0.438965	-0.262451	0.339419	-0.273235	-0.007070	-0.900048
03569		4.791885	-1.700487	8.275548	-0.002891	-0.008367	0.001468	-0.632812	0.434814	-0.264893	0.339393	-0.273262	-0.007044	-0.900050
03570		4.783148	-1.703236	8.265499	-0.003573	-0.008378	0.002280	-0.635498	0.438965	-0.260254	0.339362	-0.273269	-0.007013	-0.900060
03571		4.800643	-1.684424	8.284602	-0.002893	-0.008367	0.001467	-0.632812	0.446533	-0.255371	0.339333	-0.273305	-0.006983	-0.900060
03572		4.797801	-1.679712	8.276835	-0.003749	-0.008162	0.001642	-0.636719	0.438721	-0.261719	0.339362	-0.273374	-0.006941	-0.900029
03573		4.805586	-1.683601	8.269019	-0.003199	-0.006377	0.001709	-0.637939	0.436035	-0.256104	0.339335	-0.273381	-0.006901	-0.900037
03574		4.789043	-1.706808	8.261348	-0.002489	-0.006028	0.003335	-0.633057	0.429688	-0.254395	0.339278	-0.273405	-0.006840	-0.900052
03575		4.793703	-1.692398	8.285338	-0.002229	-0.005304	0.002149	-0.632812	0.433594	-0.268799	0.339163	-0.273413	-0.006772	-0.900093
03576		4.795346	-1.703597	8.275410	-0.002605	-0.007306	0.002718	-0.633789	0.435303	-0.254883	0.339157	-0.273382	-0.006761	-0.900105
03577		4.798005	-1.691439	8.270150	-0.002664	-0.005811	0.002697	-0.633545	0.438232	-0.256592	0.339093	-0.273405	-0.006697	-0.900123
03578		4.797530	-1.705070	8.273841	-0.000577	-0.004221	0.001775	-0.634766	0.440918	-0.264404	0.339060	-0.273396	-0.006663	-0.900138
03579		4.794142	-1.700098	8.266445	-0.002431	-0.007524	0.003353	-0.632324	0.437256	-0.263672	0.339095	-0.273401	-0.006646	-0.900123
03580		4.782910	-1.694847	8.279073	-0.000895	-0.007718	0.002363	-0.639893	0.436279	-0.264648	0.339101	-0.273398	-0.006647	-0.900122
03581		4.792139	-1.685196	8.266972	-0.001420	-0.007066	0.000452	-0.632568	0.433350	-0.260986	0.339045	-0.273389	-0.006636	-0.900146
03582		4.804072	-1.684016	8.274841	-0.002621	-0.008525	0.003637	-0.633545	0.442139	-0.256348	0.339012	-0.273408	-0.006601	-0.900153
03583		4.793104	-1.689430	8.278449	-0.003086	-0.005099	0.002323	-0.632080	0.435303	-0.257812	0.339007	-0.273427	-0.006546	-0.900149
03584		4.786428	-1.700343	8.288820	-0.002420	-0.006306	0.002430	-0.640869	0.444092	-0.263428	0.338964	-0.273438	-0.006501	-0.900163
03585		4.794284	-1.714313	8.272175	-0.000767	-0.005222	0.002057	-0.641846	0.447754	-0.263428	0.338980	-0.273424	-0.006489	-0.900161
03586		4.790472	-1.698639	8.273922	-0.000275	-0.006212	0.001528	-0.638184	0.440186	-0.263916	0.339014	-0.273425	-0.006493	-0.900148
03587		4.797559	-1.691348	8.275476	-0.000015	-0.005488	0.000342	-0.632568	0.440186	-0.264648	0.338999	-0.273400	-0.006498	-0.900161
03588		4.794028	-1.686257	8.268192	-0.002374	-0.004750	0.003948	-0.642578	0.441895	-0.260742	0.339046	-0.273370	-0.006471	-0.900153
03589		4.790280	-1.715801	8.289634	-0.002058	-0.005522	0.002782	-0.635986	0.434326	-0.263916	0.339027	-0.273375	-0.006430	-0.900158
03590		4.804859	-1.699153	8.280018	-0.002550	-0.004533	0.003311	-0.636230	0.437988	-0.267822	0.339001	-0.273340	-0.006387	-0.900180
03591		4.782005	-1.685420	8.293326	-0.001143	-0.002954	0.003203	-0.636475	0.446533	-0.263428	0.339025	-0.273269	-0.006372	-0.900192
03592		4.788184	-1.722938	8.272302	-0.001998	-0.002748	0.003380	-0.630615	0.443115	-0.252930	0.339090	-0.273233	-0.006341	-0.900178
03593		4.792481	-1.718018	8.244991	0.000781	-0.004199	0.000144	-0.630127	0.441895	-0.265381	0.339076	-0.273240	-0.006326	-0.900182
03594		4.790120	-1.689428	8.285265	0.001177	-0.003078	0.002936	-0.642090	0.444092	-0.265625	0.339147	-0.273174	-0.006342	-0.900175
03595		4.787886	-1.681174	8.264965	0.002221	-0.002283	0.002475	-0.635010	0.439941	-0.260498	0.339181	-0.273107	-0.006355	-0.900182
03596		4.797660	-1.702609	8.268940	0.002221	-0.002283	0.002475	-0.624023	0.437744	-0.255127	0.339189	-0.273051	-0.006355	-0.900196
03597		4.785655	-1.706966	8.273382	0.001555	-0.001076	0.002368	-0.637451	0.432129	-0.268066	0.339198	-0.272998	-0.006336	-0.900209
03598		4.824629	-1.691507	8.288828	0.000817	0.000408	0.003163	-0.629150	0.437744	-0.270264	0.339169	-0.272874	-0.006316	-0.900258
03599		4.752158	-1.725949	8.251491	-0.001413	0.005743	0.002188	-0.637451	0.444092	-0.264648	0.339216	-0.272693	-0.006278	-0.900295
03600		4.789578	-1.689591	8.285545	0.003047	0.001443	0.000438	-0.636475	0.446777	-0.264160	0.339242	-0.272585	-0.006292	-0.900318
03601		4.765606	-1.718962	8.276748	0.002282	0.000491	0.003073	-0.632568	0.437988	-0.271484	0.339318	-0.272497	-0.006297	-0.900316
03602		4.783280	-1.685835	8.292507	0.003709	-0.004035	-0.000035	-0.639404	0.439453	-0.263672	0.339338	-0.272404	-0.006360	-0.900336
03603		4.771867	-1.689811	8.296685	0.001739	-0.004345	0.001505	-0.629639	0.433350	-0.261475	0.339319	-0.272367	-0.006366	-0.900355
03604		4.787251	-1.693097	8.269095	0.000694	-0.005140	0.001966	-0.634033	0.441650	-0.264404	0.339281	-0.272337	-0.006358	-0.900378
03605		4.782133	-1.700740	8.266329	-0.000043	-0.003655	0.002761	-0.635254	0.448486	-0.265625	0.339314	-0.272296	-0.006350	-0.900378
03606		4.762434	-1.704835	8.290753	0.002173	-0.003839	0.000956	-0.631104	0.440186	-0.262451	0.339390	-0.272255	-0.006387	-0.900361
03607		4.778338	-1.673938	8.277074	0.002243	-0.004117	0.000054	-0.620850	0.441650	-0.263428	0.339391	-0.272214	-0.006410	-0.900373
03608		4.800740	-1.690754	8.276294	0.002102	-0.003562	0.001856	-0.636475	0.438232	-0.265381	0.339472	-0.272159	-0.006442	-0.900359
03609		4.770243	-1.696706	8.292067	-0.000505	-0.000228	0.001450	-0.632080	0.438232	-0.259521	0.339449	-0.272076	-0.006411	-0.900393
03610		4.764318	-1.693598	8.298688	0.003027	-0.004046	0.000777	-0.629395	0.438721	-0.262451	0.339428	-0.272043	-0.006427	-0.900411
03611		4.748997	-1.702607	8.287029	0.000575	-0.006418	0.001348	-0.637207	0.438965	-0.263428	0.339431	-0.272034	-0.006436	-0.900412
03612		4.778831	-1.678428	8.301721	0.000407	-0.009253	-0.000788	-0.632812	0.444092	-0.261230	0.339382	-0.272060	-0.006455	-0.900423
03613		4.770656	-1.690490	8.282748	0.000946	-0.008687	0.000200	-0.635986	0.439941	-0.265381	0.339403	-0.272090	-0.006484	-0.900406
03614		4.770431	-1.682857	8.304093	-0.001753	-0.010564	0.001035	-0.641357	0.446045	-0.262695	0.339389	-0.272131	-0.006487	-0.900399
03615		4.783545	-1.692331	8.302376	-0.005481	-0.012017	0.001413	-0.628662	0.433594	-0.263916	0.339389	-0.272229	-0.006451	-0.900369
03616		4.759160	-1.704718	8.280763	-0.005483	-0.012017	0.001412	-0.641846	0.448242	-0.261475	0.339335	-0.272293	-0.006412	-0.900370
03617		4.786132	-1.696652	8.269977	-0.001630	-0.012338	0.000148	-0.627930	0.439941	-0.268555	0.339347	-0.272386	-0.006424	-0.900338
03618		4.765741	-1.693108	8.273137	-0.004070	-0.013492	-0.000201	-0.632324	0.442383	-0.259521	0.339354	-0.272447	-0.006438	-0.900316
03619		4.783657	-1.697540	8.286749	-0.002551	-0.014906	-0.000276	-0.632080	0.440918	-0.264404	0.339341	-0.272564	-0.006451	-0.900286
03620		4.777571	-1.687154	8.271675	-0.004401	-0.013939	0.001883	-0.634277	0.439697	-0.260986	0.339350	-0.272654	-0.006442	-0.900255
03621		4.786811	-1.691084	8.262937	-0.003058	-0.015135	0.001171	-0.636230	0.436768	-0.251465	0.339326	-0.272765	-0.006442	-0.900231
03622		4.796810	-1.695286	8.296708	-0.004197	-0.014771	-0.000825	-0.630371	0.436523	-0.256104	0.339216	-0.272914	-0.006403	-0.900227
03623		4.777359	-1.702462	8.290436	-0.004646	-0.016496	0.000641	-0.637207	0.444580	-0.261230	0.339155	-0.273059	-0.006381	-0.900207
03624		4.800239	-1.678720	8.281544	-0.005923	-0.015577	0.000449	-0.635498	0.439697	-0.265137	0.339146	-0.273193	-0.006360	-0.900169
03625		4.791525	-1.694928	8.274972	-0.005817	-0.015518	0.001984	-0.632568	0.435791	-0.257812	0.339134	-0.273299	-0.006341	-0.900142
03626		4.803410	-1.707592	8.286215	-0.005927	-0.012526	0.001951	-0.634277	0.436768	-0.255859	0.339077	-0.273395	-0.006285	-0.900134
03627		4.797023	-1.697873	8.271182	-0.005522	-0.014458	0.003236	-0.642090	0.448975	-0.260742	0.339032	-0.273521	-0.006233	-0.900114
03628		4.816729	-1.710785	8.262248	-0.004885	-0.011732	0.001486	-0.630859	0.443115	-0.262695	0.339054	-0.273615	-0.006206	-0.900077
03629		4.806733	-1.715738	8.265483	0.000988	-0.010185	0.000193	-0.629639	0.436279	-0.253174	0.339085	-0.273642	-0.006253	-0.900057
03630		4.788135	-1.675015	8.269676	0.000146	-0.008760	-0.000544	-0.634033	0.436279	-0.263184	0.339024	-0.273685	-0.006252	-0.900067
03631		4.803158	-1.681892	8.297411	-0.003774	-0.008163	0.001628	-0.642090	0.447021	-0.255615	0.338990	-0.273699	-0.006219	-0.900076
03632		4.813458	-1.704161	8.257730	-0.005063	-0.008463	0.002356	-0.636963	0.441895	-0.260254	0.338991	-0.273774	-0.006158	-0.900052
03633		4.794924	-1.709688	8.281420	-0.005497	-0.008969	0.002904	-0.634277	0.439453	-0.254639	0.338991	-0.273826	-0.006103	-0.900037
03634		4.786988	-1.723433	8.261916	-0.005772	-0.013965	0.003495	-0.636719	0.438232	-0.258545	0.338970	-0.273953	-0.006049	-0.900007
03635		4.813646	-1.705389	8.259971	-0.003427	-0.011651	0.001386	-0.636230	0.440430	-0.256836	0.338926	-0.274027	-0.006024	-0.900001
03636		4.796418	-1.730711	8.265308	0.000004	-0.011258	-0.000255	-0.636230	0.442871	-0.263184	0.338890	-0.274091	-0.006042	-0.899995
03637		4.818025	-1.695569	8.266214	-0.001285	-0.011558	0.000474	-0.635986	0.438232	-0.258301	0.338897	-0.274140	-0.006065	-0.899978
03638		4.809784	-1.697797	8.256025	-0.001596	-0.010787	0.001642	-0.636719	0.443848	-0.251465	0.338866	-0.274195	-0.006058	-0.899972
03639		4.816211	-1.704146	8.261348	-0.002813	-0.008312	0.002979	-0.632812	0.440430	-0.258057	0.338865	-0.274264	-0.006011	-0.899952
03640		4.798893	-1.696221	8.280946	-0.003654	-0.006886	0.002244	-0.637939	0.441406	-0.262207	0.338863	-0.274285	-0.005970	-0.899946
03641		4.802323	-1.704589	8.257444	0.000904	-0.008079	0.003508	-0.640625	0.443604	-0.262207	0.338892	-0.274288	-0.005986	-0.899935
03642		4.807908	-1.689862	8.281169	-0.001895	-0.008795	0.001894	-0.636230	0.440674	-0.261475	0.338900	-0.274316	-0.005980	-0.899923
03643		4.822271	-1.707046	8.257213	-0.004444	-0.006955	0.001523	-0.630859	0.437500	-0.262939	0.338887	-0.274329	-0.005937	-0.899925
03644		4.802424	-1.700980	8.247758	-0.000850	-0.008001	0.001430	-0.635010	0.432617	-0.264160	0.338884	-0.274324	-0.005946	-0.899927
03645		4.806906	-1.709792	8.266712	-0.001962	-0.008519	0.002794	-0.637695	0.447754	-0.266113	0.338846	-0.274321	-0.005930	-0.899942
03646		4.816573	-1.710869	8.245209	-0.002331	-0.009302	0.002440	-0.632080	0.447998	-0.256592	0.338911	-0.274344	-0.005939	-0.899911
03647		4.808734	-1.714056	8.277783	-0.003363	-0.008877	0.001987	-0.641113	0.449463	-0.264160	0.338963	-0.274402	-0.005920	-0.899874
03648		4.813355	-1.699350	8.258891	-0.003658	-0.006886	0.002242	-0.634521	0.439209	-0.264404	0.339016	-0.274415	-0.005898	-0.899850
03649		4.822760	-1.700684	8.237473	-0.003606	-0.008383	0.002254	-0.633789	0.435547	-0.263672	0.339013	-0.274425	-0.005875	-0.899848
03650		4.820581	-1.696754	8.272388	-0.003191	-0.007265	0.005046	-0.639160	0.442871	-0.255371	0.339014	-0.274417	-0.005835	-0.899850
03651		4.820750	-1.721732	8.266550	-0.006300	-0.007209	0.004604	-0.631592	0.441406	-0.261963	0.339020	-0.274470	-0.005749	-0.899832
03652		4.817161	-1.707507	8.268010	-0.005867	-0.006703	0.004055	-0.639160	0.443115	-0.255615	0.339050	-0.274481	-0.005688	-0.899818
03653		4.818402	-1.709403	8.266895	-0.008122	-0.006853	0.003431	-0.634521	0.438477	-0.259766	0.339038	-0.274536	-0.005585	-0.899806
03654		4.806355	-1.739092	8.265685	-0.005803	-0.006979	0.003151	-0.634033	0.439941	-0.262695	0.339019	-0.274556	-0.005516	-0.899808
03655		4.810765	-1.724752	8.246835	-0.003129	-0.007543	0.004139	-0.629150	0.438965	-0.263672	0.339040	-0.274560	-0.005487	-0.899799
03656		4.811755	-1.715584	8.254965	-0.003792	-0.006334	0.004042	-0.632568	0.444580	-0.252197	0.339068	-0.274545	-0.005451	-0.899793
03657		4.818967	-1.719824	8.247221	-0.003843	-0.004838	0.004030	-0.632324	0.434082	-0.261963	0.339102	-0.274570	-0.005387	-0.899773
03658		4.810739	-1.733557	8.271080	-0.002197	-0.006806	0.002139	-0.635986	0.440186	-0.260498	0.339058	-0.274555	-0.005361	-0.899794
03659		4.808690	-1.715819	8.259364	-0.003778	-0.005114	0.003127	-0.627197	0.442139	-0.252197	0.339054	-0.274545	-0.005310	-0.899799
03660		4.828058	-1.715680	8.246924	-0.005067	-0.005414	0.003858	-0.635254	0.437744	-0.263428	0.339081	-0.274574	-0.005238	-0.899781
03661		4.815414	-1.734550	8.255107	-0.003246	-0.005771	0.005028	-0.629639	0.442139	-0.253662	0.339088	-0.274553	-0.005193	-0.899785
03662		4.808430	-1.735532	8.274677	-0.003844	-0.004838	0.004029	-0.638184	0.439453	-0.255371	0.339115	-0.274566	-0.005132	-0.899771
03663		4.811036	-1.723583	8.269423	-0.003004	-0.008095	0.002330	-0.637451	0.438721	-0.260498	0.339076	-0.274606	-0.005088	-0.899774
