// Start Time: Unknown
// Update Rate: 40.0Hz
// Filter Profile: human (46.1)
// Firmware Version: 4.6.0
PacketCounter	SampleTimeFine	Acc_X	Acc_Y	Acc_Z	Gyr_X	Gyr_Y	Gyr_Z	Mag_X	Mag_Y	Mag_Z	Quat_q0	Quat_q1	Quat_q2	Quat_q3
03148		3.892594	0.948496	8.863150	-0.010994	-0.011083	-0.003557	-0.499023	0.551758	-0.653076	0.563996	-0.138331	-0.158842	-0.798462
03149		3.931612	0.947225	8.836830	-0.007213	-0.009889	-0.002101	-0.505615	0.558350	-0.660400	0.563943	-0.138477	-0.158844	-0.798474
03150		3.896609	0.956314	8.842547	-0.006536	-0.009924	-0.004447	-0.494873	0.546875	-0.665039	0.563862	-0.138618	-0.158860	-0.798503
03151		3.906199	0.964048	8.811456	-0.007455	-0.010691	-0.003705	-0.507324	0.552490	-0.658203	0.563858	-0.138711	-0.158815	-0.798499
03152		3.913340	0.979366	8.870640	-0.013370	-0.008999	-0.004016	-0.507812	0.556885	-0.657471	0.563739	-0.138920	-0.158784	-0.798553
03153		3.938178	0.930596	8.843462	-0.010373	-0.003753	-0.002904	-0.506104	0.556152	-0.647705	0.563655	-0.139049	-0.158741	-0.798599
03154		3.912501	0.935815	8.857910	-0.007386	-0.002471	-0.000628	-0.503174	0.551025	-0.653809	0.563582	-0.139169	-0.158731	-0.798631
03155		3.892784	0.950655	8.832454	-0.010556	-0.004581	-0.003745	-0.506836	0.550293	-0.660645	0.563499	-0.139302	-0.158686	-0.798675
03156		3.902367	0.935327	8.839820	-0.016302	-0.009077	-0.002345	-0.495117	0.549805	-0.655762	0.563409	-0.139523	-0.158615	-0.798714
03157		3.905549	0.940971	8.830032	-0.024912	-0.009716	0.000333	-0.502197	0.547852	-0.652588	0.563393	-0.139756	-0.158414	-0.798725
03158		3.874592	0.973885	8.808203	-0.042319	-0.014877	0.004552	-0.503174	0.552246	-0.655273	0.563316	-0.140228	-0.158115	-0.798756
03159		3.936368	0.874226	8.871249	-0.045980	-0.013076	0.004890	-0.500488	0.555664	-0.653809	0.563257	-0.140704	-0.157749	-0.798786
03160		3.957959	0.850027	8.886496	-0.027537	-0.010567	-0.003498	-0.503174	0.553467	-0.652588	0.563176	-0.141004	-0.157539	-0.798832
03161		3.947597	0.851912	8.868257	0.003533	-0.008161	-0.007128	-0.503174	0.557617	-0.648438	0.563093	-0.141071	-0.157648	-0.798857
03162		3.928854	0.901047	8.854276	0.011407	-0.007459	-0.008226	-0.505615	0.556152	-0.658447	0.563021	-0.141111	-0.157807	-0.798869
03163		3.924049	0.904774	8.874287	0.004878	-0.006994	-0.008623	-0.505615	0.561768	-0.643555	0.562944	-0.141166	-0.157901	-0.798895
03164		3.918904	0.909052	8.835244	0.000732	-0.003423	-0.006527	-0.502686	0.562256	-0.653076	0.562868	-0.141284	-0.157910	-0.798926
03165		3.910614	0.900908	8.855595	-0.004272	-0.002790	-0.004674	-0.507812	0.557617	-0.653320	0.562846	-0.141377	-0.157838	-0.798939
03166		3.911425	0.900270	8.855302	-0.006045	-0.005583	-0.005627	-0.501953	0.557861	-0.658691	0.562761	-0.141513	-0.157819	-0.798979
03167		3.931066	0.894719	8.851517	-0.002384	-0.005245	-0.004241	-0.510742	0.553223	-0.663330	0.562749	-0.141554	-0.157802	-0.798984
03168		3.918742	0.888699	8.842775	-0.001895	-0.006101	-0.007429	-0.508301	0.553955	-0.650879	0.562647	-0.141615	-0.157857	-0.799034
03169		3.924245	0.897730	8.852057	0.000542	-0.006988	-0.003022	-0.503662	0.561523	-0.650146	0.562574	-0.141706	-0.157935	-0.799054
03170		3.928196	0.878043	8.839429	0.003716	-0.007333	-0.006296	-0.501709	0.563965	-0.654297	0.562533	-0.141779	-0.157982	-0.799060
03171		3.949800	0.874261	8.844810	0.010001	-0.007367	-0.004312	-0.505371	0.558105	-0.646484	0.562562	-0.141793	-0.158059	-0.799022
03172		3.931436	0.912808	8.849743	0.010306	-0.007823	-0.005144	-0.510254	0.562500	-0.649170	0.562511	-0.141843	-0.158207	-0.799020
03173		3.941275	0.873267	8.844117	0.012439	-0.009793	-0.007758	-0.509277	0.561279	-0.660156	0.562429	-0.141937	-0.158375	-0.799028
03174		3.939161	0.898452	8.845130	0.015674	-0.008939	-0.007075	-0.499512	0.562988	-0.659180	0.562398	-0.141928	-0.158562	-0.799014
03175		3.936655	0.894021	8.834062	0.016224	-0.007685	-0.007754	-0.502930	0.559570	-0.659180	0.562442	-0.141841	-0.158693	-0.798972
03176		3.945861	0.925552	8.833946	0.007927	-0.005741	-0.005594	-0.495605	0.547852	-0.661865	0.562461	-0.141802	-0.158764	-0.798952
03177		3.947091	0.916532	8.852384	0.003658	-0.002116	-0.005018	-0.500488	0.549316	-0.651123	0.562481	-0.141611	-0.158827	-0.798959
03178		3.949865	0.897246	8.840273	0.004757	-0.001430	-0.003469	-0.507812	0.555908	-0.653809	0.562460	-0.141537	-0.158908	-0.798971
03179		3.930098	0.904510	8.833728	0.005489	-0.002401	-0.003602	-0.506592	0.552002	-0.655273	0.562432	-0.141547	-0.158980	-0.798974
03180		3.925402	0.916834	8.845005	0.000607	-0.002144	-0.004862	-0.508301	0.562012	-0.650635	0.562373	-0.141539	-0.159026	-0.799008
03181		3.955134	0.909596	8.849294	0.005062	-0.001887	-0.004301	-0.498291	0.553955	-0.663330	0.562368	-0.141615	-0.159037	-0.798996
03182		3.937561	0.896058	8.831060	0.003232	0.000538	-0.003968	-0.508545	0.552002	-0.660889	0.562454	-0.141435	-0.159034	-0.798968
03183		3.949647	0.893704	8.848579	0.007198	0.001335	-0.004870	-0.503906	0.557861	-0.654541	0.562413	-0.141309	-0.159133	-0.798999
03184		3.941211	0.908525	8.840788	0.007746	-0.000463	-0.005845	-0.504150	0.560791	-0.655762	0.562434	-0.141265	-0.159173	-0.798984
03185		3.940824	0.911264	8.840678	0.012202	0.002848	-0.004989	-0.500244	0.559326	-0.655518	0.562508	-0.141169	-0.159207	-0.798943
03186		3.947629	0.882169	8.876615	0.021535	0.003442	-0.009280	-0.504639	0.559814	-0.657227	0.562585	-0.140957	-0.159326	-0.798902
03187		3.925565	0.915847	8.832184	0.027086	0.003155	-0.010379	-0.506348	0.549316	-0.652832	0.562629	-0.140736	-0.159520	-0.798872
03188		3.904680	0.927518	8.825650	0.018911	0.001989	-0.006981	-0.507324	0.552490	-0.655518	0.562553	-0.140584	-0.159732	-0.798909
03189		3.908448	0.909620	8.823256	0.006343	-0.000697	-0.006569	-0.506592	0.556396	-0.655029	0.562488	-0.140555	-0.159809	-0.798944
03190		3.935658	0.923348	8.839336	0.001525	-0.003201	-0.002701	-0.504883	0.551758	-0.656006	0.562496	-0.140623	-0.159801	-0.798929
03191		3.948521	0.920058	8.856621	0.001830	-0.001515	-0.001785	-0.507324	0.555176	-0.658936	0.562495	-0.140609	-0.159818	-0.798928
03192		3.921825	0.908653	8.840076	0.004269	-0.000894	-0.004938	-0.501953	0.551758	-0.648926	0.562486	-0.140580	-0.159846	-0.798934
03193		3.932562	0.917684	8.828685	0.004208	-0.003920	-0.005996	-0.500732	0.554688	-0.655273	0.562451	-0.140630	-0.159876	-0.798944
03194		3.922539	0.911038	8.839513	-0.000307	0.000133	-0.003823	-0.501465	0.552734	-0.655762	0.562514	-0.140605	-0.159796	-0.798920
03195		3.930190	0.909825	8.828184	0.001583	-0.000499	-0.006298	-0.504639	0.552002	-0.656982	0.562526	-0.140554	-0.159771	-0.798926
03196		3.946701	0.916226	8.855455	0.006891	-0.000351	-0.005799	-0.497314	0.547607	-0.645752	0.562509	-0.140474	-0.159829	-0.798940
03197		3.934207	0.922495	8.837692	0.008964	-0.000154	-0.007434	-0.510254	0.553467	-0.657227	0.562482	-0.140423	-0.159877	-0.798958
03198		3.910547	0.911064	8.840292	0.006709	-0.002090	-0.005187	-0.502441	0.549561	-0.651367	0.562409	-0.140436	-0.159968	-0.798989
03199		3.923045	0.919476	8.838415	0.002441	-0.004576	-0.005195	-0.498047	0.553223	-0.655762	0.562368	-0.140473	-0.159999	-0.799006
03200		3.930575	0.908679	8.836013	0.002867	-0.004179	-0.005951	-0.500977	0.561279	-0.651123	0.562454	-0.140423	-0.159963	-0.798961
03201		3.935218	0.919050	8.845475	0.006219	-0.001552	-0.006653	-0.504883	0.552979	-0.664551	0.562572	-0.140500	-0.159859	-0.798885
03202		3.921316	0.904730	8.846241	0.005734	-0.004977	-0.006955	-0.499023	0.554443	-0.659668	0.562582	-0.140373	-0.159938	-0.798884
03203		3.916053	0.939290	8.819147	0.004942	-0.004890	-0.006134	-0.502930	0.552490	-0.651123	0.562684	-0.140282	-0.159927	-0.798831
03204		3.913439	0.920464	8.827798	-0.003170	-0.005178	-0.003406	-0.507080	0.549316	-0.654785	0.562675	-0.140413	-0.159869	-0.798826
03205		3.924590	0.906882	8.844569	-0.003657	-0.007695	-0.005163	-0.503906	0.552490	-0.658203	0.562557	-0.140522	-0.159909	-0.798882
03206		3.927164	0.916935	8.834491	-0.001523	-0.007523	-0.006036	-0.508301	0.556396	-0.657227	0.562544	-0.140551	-0.159911	-0.798886
03207		3.954323	0.919161	8.859633	-0.003962	-0.005092	-0.002585	-0.505371	0.552490	-0.660156	0.562548	-0.140677	-0.159853	-0.798872
03208		3.934860	0.894620	8.841103	-0.000185	-0.002066	-0.004044	-0.506836	0.548340	-0.656494	0.562557	-0.140624	-0.159844	-0.798877
03209		3.919842	0.909698	8.844212	0.003179	-0.007362	-0.002425	-0.499023	0.550781	-0.653564	0.562485	-0.140640	-0.159957	-0.798902
03210		3.923714	0.930488	8.824546	-0.000970	-0.010231	-0.005558	-0.501465	0.536377	-0.647949	0.562510	-0.140692	-0.159944	-0.798878
03211		3.942103	0.905803	8.839073	0.000797	-0.007430	-0.004615	-0.501953	0.559082	-0.651855	0.562297	-0.140681	-0.160110	-0.798997
03212		3.924131	0.900846	8.851128	-0.004145	-0.008068	-0.005176	-0.497803	0.544434	-0.660156	0.562387	-0.140873	-0.159962	-0.798929
03213		3.915109	0.902975	8.842501	-0.008408	-0.009322	-0.001977	-0.509766	0.565186	-0.653320	0.562428	-0.140782	-0.159948	-0.798919
03214		3.961001	0.909941	8.844995	-0.004567	-0.009375	-0.002968	-0.500000	0.557373	-0.646729	0.562496	-0.141108	-0.159803	-0.798842
03215		3.933239	0.917163	8.839838	-0.006829	-0.006442	-0.003331	-0.506104	0.549072	-0.647949	0.562583	-0.141333	-0.159612	-0.798780
03216		3.935357	0.875195	8.846255	-0.006154	-0.008293	-0.002777	-0.497803	0.548828	-0.652344	0.562466	-0.141530	-0.159603	-0.798830
03217		3.952319	0.900758	8.835025	-0.004697	-0.006269	-0.004205	-0.505371	0.561279	-0.654297	0.562504	-0.141522	-0.159540	-0.798817
03218		3.934052	0.894918	8.847325	-0.005488	-0.006183	-0.003382	-0.500488	0.562500	-0.660400	0.562597	-0.141691	-0.159387	-0.798752
03219		3.952105	0.889755	8.833899	-0.004696	-0.004125	-0.002455	-0.501953	0.553711	-0.654541	0.562823	-0.141689	-0.159191	-0.798632
03220		3.941939	0.871078	8.853985	-0.006217	-0.006123	-0.001794	-0.505615	0.557861	-0.650879	0.562872	-0.141746	-0.159102	-0.798605
03221		3.964329	0.874765	8.850307	-0.002805	-0.005663	-0.003483	-0.504639	0.554199	-0.653564	0.562894	-0.141903	-0.159022	-0.798577
03222		3.951874	0.869875	8.841598	0.010669	-0.004327	-0.006418	-0.503906	0.567383	-0.650635	0.562888	-0.141855	-0.159116	-0.798571
03223		3.946696	0.895218	8.833579	0.013530	-0.002069	-0.007131	-0.499512	0.550293	-0.660645	0.563062	-0.141925	-0.159052	-0.798449
03224		3.937754	0.900492	8.834858	0.006828	-0.002133	-0.003677	-0.498291	0.560547	-0.651367	0.563127	-0.141691	-0.159104	-0.798435
03225		3.934500	0.882554	8.843732	0.003835	-0.001286	-0.004199	-0.498535	0.565430	-0.654053	0.563303	-0.141701	-0.158968	-0.798335
03226		3.968299	0.885254	8.857746	0.010726	-0.001300	-0.005360	-0.500732	0.558350	-0.652100	0.563550	-0.141665	-0.158861	-0.798189
03227		3.952730	0.893406	8.820664	0.011087	-0.000876	-0.006884	-0.499268	0.549805	-0.650391	0.563639	-0.141611	-0.158857	-0.798136
03228		3.942263	0.888693	8.831575	0.009315	0.001519	-0.005781	-0.512939	0.553223	-0.656982	0.563625	-0.141489	-0.158894	-0.798161
03229		3.926170	0.905462	8.835015	0.006575	-0.002029	-0.006743	-0.503906	0.556885	-0.656250	0.563495	-0.141488	-0.159029	-0.798226
03230		3.937292	0.903949	8.842641	0.002304	-0.001470	-0.006448	-0.508545	0.559082	-0.659912	0.563529	-0.141467	-0.158990	-0.798213
03231		3.946506	0.902101	8.840896	-0.001050	0.001097	-0.003694	-0.503418	0.552979	-0.649170	0.563575	-0.141459	-0.158920	-0.798196
03232		3.920141	0.878769	8.843730	-0.002631	-0.000876	-0.003795	-0.506592	0.555908	-0.649170	0.563549	-0.141540	-0.158846	-0.798215
03233		3.953981	0.880285	8.857845	0.007378	-0.001785	-0.002907	-0.516113	0.561768	-0.657715	0.563546	-0.141613	-0.158874	-0.798198
03234		3.935240	0.898258	8.841821	0.008467	-0.003567	-0.007774	-0.505127	0.556885	-0.647949	0.563494	-0.141697	-0.158973	-0.798201
03235		3.955701	0.895325	8.847607	0.009991	-0.000330	-0.005233	-0.509766	0.556641	-0.655029	0.563505	-0.141739	-0.158989	-0.798182
03236		3.929812	0.893991	8.881231	0.008459	0.001632	-0.005729	-0.508057	0.562500	-0.655273	0.563484	-0.141709	-0.159038	-0.798193
03237		3.941472	0.894196	8.839327	0.009800	0.001893	-0.005781	-0.502686	0.554688	-0.646729	0.563554	-0.141698	-0.159017	-0.798149
03238		3.941663	0.886088	8.858288	0.008889	0.001122	-0.005033	-0.508789	0.552734	-0.652588	0.563562	-0.141710	-0.159009	-0.798143
03239		3.903549	0.900135	8.805752	0.010767	0.003545	-0.007224	-0.505371	0.558838	-0.651123	0.563491	-0.141637	-0.159095	-0.798189
03240		3.922890	0.876457	8.840351	0.006688	-0.000267	-0.008131	-0.507324	0.560791	-0.652344	0.563496	-0.141672	-0.159066	-0.798185
03241		3.927515	0.907618	8.821481	0.001762	-0.002728	-0.005769	-0.500977	0.559570	-0.652832	0.563516	-0.141785	-0.158999	-0.798165
03242		3.930778	0.917551	8.821308	-0.001951	-0.004878	-0.004990	-0.500244	0.554199	-0.654541	0.563581	-0.141872	-0.158870	-0.798129
03243		3.929926	0.897216	8.839696	-0.003039	-0.005240	-0.001874	-0.502197	0.544922	-0.649902	0.563627	-0.141900	-0.158786	-0.798108
03244		3.929941	0.886920	8.848707	-0.001768	-0.004047	-0.004149	-0.500244	0.549072	-0.646973	0.563519	-0.141906	-0.158817	-0.798177
03245		3.941603	0.884326	8.856214	0.002622	-0.003746	-0.004373	-0.505371	0.560791	-0.657715	0.563476	-0.141934	-0.158821	-0.798202
03246		3.946495	0.894227	8.865581	0.003476	-0.003857	-0.004434	-0.502441	0.553711	-0.654541	0.563543	-0.141948	-0.158780	-0.798159
03247		3.919682	0.893543	8.829911	0.003349	-0.003807	-0.005967	-0.505127	0.551514	-0.652832	0.563540	-0.141920	-0.158784	-0.798166
03248		3.943100	0.898461	8.835876	0.002382	-0.003312	-0.002774	-0.498047	0.554443	-0.653809	0.563511	-0.141930	-0.158809	-0.798179
03249		3.932026	0.891977	8.837010	-0.000850	-0.004184	-0.003444	-0.511230	0.548828	-0.651611	0.563577	-0.141920	-0.158724	-0.798151
03250		3.935459	0.901944	8.836752	0.002566	-0.004628	-0.003685	-0.506592	0.560547	-0.653564	0.563441	-0.141986	-0.158836	-0.798214
03251		3.919579	0.876477	8.837394	-0.002247	-0.005328	-0.002701	-0.506592	0.554199	-0.647705	0.563480	-0.142119	-0.158748	-0.798180
03252		3.938971	0.882096	8.814278	-0.001933	-0.008840	-0.003831	-0.507568	0.559814	-0.645508	0.563414	-0.142305	-0.158742	-0.798194
03253		3.927771	0.894929	8.836440	-0.004385	-0.006744	-0.005032	-0.503418	0.553955	-0.652100	0.563371	-0.142558	-0.158644	-0.798199
03254		3.939497	0.880648	8.853080	-0.008877	-0.009718	-0.001968	-0.508057	0.556152	-0.655029	0.563361	-0.142707	-0.158563	-0.798196
03255		3.936867	0.880842	8.823432	-0.008079	-0.010710	-0.001340	-0.509033	0.557373	-0.652832	0.563342	-0.142873	-0.158519	-0.798189
03256		3.954785	0.875501	8.859214	0.002273	-0.009369	-0.004906	-0.503174	0.561523	-0.651367	0.563300	-0.142984	-0.158567	-0.798188
03257		3.930448	0.884581	8.813484	0.003394	-0.012634	-0.002199	-0.504883	0.557373	-0.657959	0.563369	-0.143126	-0.158553	-0.798117
03258		3.945148	0.891978	8.810618	-0.001051	-0.013820	-0.001282	-0.506348	0.561279	-0.649658	0.563411	-0.143209	-0.158575	-0.798069
03259		3.934582	0.885003	8.801325	-0.005074	-0.012460	0.000630	-0.506348	0.552979	-0.650391	0.563455	-0.143450	-0.158497	-0.798010
03260		3.954448	0.867799	8.855697	-0.007369	-0.017430	0.001824	-0.500000	0.556396	-0.645508	0.563429	-0.143682	-0.158513	-0.797983
03261		3.975203	0.862068	8.841035	-0.004817	-0.016855	0.000180	-0.505127	0.554688	-0.647705	0.563463	-0.143917	-0.158464	-0.797926
03262		3.952094	0.848793	8.823278	-0.001098	-0.017756	-0.000904	-0.508057	0.564453	-0.645264	0.563438	-0.144125	-0.158522	-0.797895
03263		3.965165	0.876049	8.831791	-0.003174	-0.017051	-0.000714	-0.513672	0.562744	-0.643311	0.563456	-0.144457	-0.158476	-0.797831
03264		3.930222	0.885289	8.827618	-0.007921	-0.017779	0.001040	-0.502197	0.561035	-0.645020	0.563412	-0.144874	-0.158441	-0.797794
03265		3.971767	0.852153	8.847217	-0.013264	-0.022791	0.002405	-0.506104	0.557129	-0.648193	0.563456	-0.145253	-0.158324	-0.797717
03266		3.948262	0.866972	8.831535	-0.015289	-0.023350	0.000145	-0.515381	0.562256	-0.640869	0.563422	-0.145599	-0.158272	-0.797688
03267		3.977214	0.846932	8.814408	-0.020418	-0.024833	-0.001248	-0.511230	0.556152	-0.648682	0.563293	-0.146170	-0.158186	-0.797692
03268		4.015830	0.843067	8.826691	-0.021213	-0.019549	0.001637	-0.507080	0.561279	-0.638916	0.563226	-0.146518	-0.158097	-0.797693
03269		4.005535	0.801688	8.854972	-0.015929	-0.017565	-0.000807	-0.509033	0.560547	-0.649414	0.563183	-0.146914	-0.157954	-0.797679
03270		4.021650	0.816220	8.842670	-0.008078	-0.013766	-0.001675	-0.504150	0.563965	-0.652832	0.563174	-0.147091	-0.157915	-0.797660
03271		4.024811	0.825675	8.832291	-0.000555	-0.007690	-0.004609	-0.506592	0.562988	-0.649170	0.563239	-0.147095	-0.157860	-0.797625
03272		4.026031	0.826270	8.831679	0.002185	-0.004137	-0.003643	-0.508301	0.566406	-0.650635	0.563284	-0.147097	-0.157823	-0.797600
03273		3.994349	0.826076	8.826986	0.005898	0.000163	-0.002660	-0.516357	0.562988	-0.645508	0.563368	-0.147050	-0.157778	-0.797558
03274		3.994193	0.827829	8.826892	0.005498	0.000320	-0.007259	-0.511475	0.561035	-0.646973	0.563299	-0.147084	-0.157810	-0.797594
03275		4.007077	0.856127	8.806694	0.000330	0.004389	-0.002669	-0.511963	0.561768	-0.646240	0.563306	-0.147060	-0.157739	-0.797608
03276		3.971368	0.824572	8.830942	-0.001812	0.005120	-0.003239	-0.504639	0.565674	-0.649170	0.563301	-0.147059	-0.157638	-0.797631
03277		3.969151	0.825661	8.821546	0.002044	-0.001031	-0.004867	-0.511963	0.558350	-0.647217	0.563364	-0.147036	-0.157550	-0.797609
03278		3.976333	0.835754	8.790870	0.003327	-0.003796	-0.005997	-0.515869	0.562744	-0.648438	0.563303	-0.147048	-0.157602	-0.797639
03279		3.980385	0.835313	8.809670	0.000044	-0.003407	-0.004213	-0.504639	0.559570	-0.649414	0.563260	-0.147122	-0.157605	-0.797656
03280		3.977722	0.816423	8.818479	0.001132	-0.003949	-0.005881	-0.513916	0.570312	-0.642090	0.563266	-0.147089	-0.157583	-0.797661
03281		3.981221	0.826892	8.818147	0.004210	-0.005724	-0.003154	-0.509766	0.564209	-0.645508	0.563277	-0.147260	-0.157551	-0.797628
03282		3.984039	0.827534	8.827111	0.003022	-0.005484	-0.006925	-0.511719	0.558838	-0.642090	0.563252	-0.147325	-0.157546	-0.797635
03283		3.991026	0.836820	8.845904	0.002368	-0.005452	-0.004562	-0.513184	0.560791	-0.643066	0.563192	-0.147410	-0.157578	-0.797655
03284		3.970203	0.814287	8.817696	0.005350	-0.005382	-0.005512	-0.509033	0.564697	-0.649170	0.563135	-0.147480	-0.157635	-0.797672
03285		4.003764	0.817732	8.821221	0.006816	-0.009462	-0.007562	-0.513672	0.571289	-0.643555	0.563123	-0.147512	-0.157695	-0.797662
03286		3.978018	0.827542	8.825450	0.008773	-0.011022	-0.007842	-0.511230	0.564697	-0.654785	0.563099	-0.147670	-0.157748	-0.797639
03287		3.994413	0.846320	8.822872	0.006649	-0.009056	-0.005194	-0.512939	0.565186	-0.641602	0.563116	-0.147658	-0.157824	-0.797615
03288		3.993783	0.838487	8.821672	0.004288	-0.008804	-0.002702	-0.509033	0.557617	-0.643311	0.563108	-0.147807	-0.157845	-0.797589
03289		3.995050	0.829514	8.830029	0.002575	-0.010731	-0.004339	-0.508301	0.560791	-0.649902	0.563064	-0.147897	-0.157906	-0.797591
03290		4.012505	0.826873	8.806087	0.002710	-0.010782	-0.002807	-0.507812	0.563965	-0.648926	0.563079	-0.147937	-0.157950	-0.797564
03291		4.007038	0.829751	8.816432	0.003599	-0.009101	-0.005014	-0.500732	0.566406	-0.651611	0.563095	-0.147976	-0.157967	-0.797542
03292		4.010524	0.830305	8.825105	0.003485	-0.007812	-0.003330	-0.500977	0.563232	-0.648438	0.563194	-0.147957	-0.157918	-0.797485
03293		4.016893	0.820195	8.812809	0.003406	-0.004731	-0.003788	-0.509033	0.562500	-0.645508	0.563267	-0.147921	-0.157868	-0.797451
03294		4.012612	0.832700	8.823930	0.004429	-0.003101	-0.004461	-0.512695	0.560547	-0.639404	0.563275	-0.147926	-0.157864	-0.797445
03295		4.009108	0.825356	8.813691	0.005300	-0.004119	-0.003072	-0.504395	0.562988	-0.650146	0.563246	-0.148003	-0.157895	-0.797445
03296		4.018774	0.824485	8.811551	0.005203	-0.000131	-0.004984	-0.503906	0.568848	-0.645752	0.563301	-0.147906	-0.157860	-0.797430
03297		4.008338	0.818073	8.822831	0.001657	0.002505	-0.004495	-0.508789	0.559570	-0.643555	0.563384	-0.147885	-0.157718	-0.797404
03298		4.021591	0.835174	8.821786	0.000422	0.006152	-0.004048	-0.508301	0.562012	-0.648438	0.563384	-0.147828	-0.157627	-0.797433
03299		4.006921	0.808938	8.842751	0.003031	0.004559	-0.006696	-0.511230	0.564941	-0.651611	0.563389	-0.147730	-0.157570	-0.797459
03300		4.007410	0.830687	8.824273	0.005660	0.004206	-0.006124	-0.510498	0.557373	-0.646240	0.563411	-0.147623	-0.157542	-0.797469
03301		3.989484	0.807026	8.825859	0.008205	0.004786	-0.007775	-0.504150	0.558350	-0.649902	0.563367	-0.147493	-0.157575	-0.797517
03302		3.978708	0.832805	8.799623	0.007888	0.006152	-0.008393	-0.501953	0.562256	-0.645752	0.563374	-0.147294	-0.157564	-0.797551
03303		3.990469	0.841425	8.808153	0.005697	0.008143	-0.006508	-0.510498	0.560547	-0.645020	0.563425	-0.147148	-0.157466	-0.797561
03304		3.977684	0.846445	8.800990	0.005879	0.006827	-0.007427	-0.503418	0.561035	-0.651123	0.563398	-0.147054	-0.157435	-0.797604
03305		3.975741	0.838313	8.810746	0.004803	0.002167	-0.007828	-0.506592	0.558105	-0.650391	0.563418	-0.146928	-0.157402	-0.797619
03306		3.976258	0.828882	8.829823	0.000314	0.000090	-0.006205	-0.512451	0.556152	-0.643799	0.563403	-0.146866	-0.157368	-0.797648
03307		3.985569	0.827439	8.827915	0.003815	-0.001277	-0.004240	-0.510254	0.558105	-0.651123	0.563343	-0.146873	-0.157401	-0.797683
03308		3.992543	0.817478	8.825680	0.008369	-0.001372	-0.006861	-0.510498	0.565430	-0.649170	0.563313	-0.146780	-0.157477	-0.797706
03309		3.999331	0.808652	8.823430	0.011818	-0.000019	-0.009268	-0.513428	0.556885	-0.651855	0.563304	-0.146704	-0.157531	-0.797716
03310		3.983787	0.836472	8.817561	0.011450	0.000464	-0.009199	-0.507080	0.554443	-0.636230	0.563237	-0.146572	-0.157649	-0.797764
03311		3.976031	0.841807	8.828702	0.011565	-0.000828	-0.010886	-0.506348	0.556885	-0.644043	0.563132	-0.146544	-0.157729	-0.797827
03312		3.990955	0.841379	8.805712	0.008586	0.001248	-0.008168	-0.504395	0.559570	-0.644775	0.563098	-0.146465	-0.157758	-0.797861
03313		3.988785	0.824665	8.824544	0.014363	0.002711	-0.009167	-0.506836	0.561768	-0.638916	0.563098	-0.146330	-0.157811	-0.797875
03314		3.992141	0.838086	8.834240	0.018750	0.003027	-0.009419	-0.503418	0.557617	-0.649170	0.563082	-0.146237	-0.157888	-0.797888
03315		3.990637	0.863674	8.805890	0.017694	0.007507	-0.008138	-0.510742	0.556641	-0.654785	0.563119	-0.145986	-0.157953	-0.797895
03316		3.954070	0.836571	8.830421	0.016687	0.010717	-0.009310	-0.511230	0.556152	-0.655273	0.563109	-0.145694	-0.158036	-0.797938
03317		3.977083	0.854786	8.837266	0.017559	0.007553	-0.009682	-0.505859	0.558594	-0.648926	0.563087	-0.145429	-0.158153	-0.797980
03318		3.967779	0.852661	8.808574	0.023905	0.006314	-0.010217	-0.511475	0.545166	-0.655518	0.563099	-0.145178	-0.158289	-0.797990
03319		3.939466	0.875637	8.804449	0.019051	0.002565	-0.010276	-0.504883	0.562012	-0.652588	0.563001	-0.144903	-0.158518	-0.798063
03320		3.942057	0.838965	8.820986	0.015138	-0.002218	-0.008169	-0.512939	0.557129	-0.647705	0.563041	-0.144799	-0.158601	-0.798037
03321		3.953800	0.900360	8.802045	0.009276	-0.002759	-0.009395	-0.510010	0.555908	-0.647217	0.562958	-0.144790	-0.158678	-0.798083
03322		3.958034	0.871118	8.808992	0.002296	-0.004538	-0.006791	-0.505127	0.553223	-0.641113	0.562898	-0.144839	-0.158687	-0.798114
03323		3.964865	0.880449	8.827778	0.000841	-0.005663	-0.006807	-0.511719	0.556885	-0.649414	0.562834	-0.144922	-0.158671	-0.798147
03324		3.975386	0.878628	8.825383	-0.001401	-0.006704	-0.005988	-0.510986	0.561035	-0.654297	0.562773	-0.145012	-0.158662	-0.798176
03325		3.953708	0.874242	8.818783	-0.005674	-0.004013	-0.003898	-0.512451	0.560547	-0.643799	0.562774	-0.145086	-0.158572	-0.798179
03326		3.980282	0.866862	8.803717	-0.004725	-0.000208	-0.003589	-0.507324	0.559326	-0.650391	0.562740	-0.145201	-0.158449	-0.798207
03327		3.967551	0.849715	8.814962	0.000128	0.001391	-0.005300	-0.509766	0.564697	-0.655762	0.562752	-0.145179	-0.158372	-0.798218
03328		3.972492	0.848998	8.843739	0.004234	-0.000883	-0.005014	-0.510010	0.555664	-0.650879	0.562795	-0.145148	-0.158342	-0.798199
03329		3.961655	0.853500	8.835708	0.005525	-0.001496	-0.004383	-0.514893	0.555664	-0.652832	0.562783	-0.145109	-0.158370	-0.798209
03330		3.945209	0.880449	8.819836	0.009265	-0.005440	-0.005787	-0.503662	0.551025	-0.648682	0.562730	-0.145085	-0.158486	-0.798228
03331		3.987111	0.872003	8.831063	0.005433	-0.007563	-0.006520	-0.509277	0.560303	-0.651123	0.562699	-0.145072	-0.158555	-0.798238
03332		3.983098	0.855107	8.830228	0.007097	-0.001665	-0.006056	-0.506836	0.550049	-0.649902	0.562704	-0.145040	-0.158571	-0.798237
03333		3.964549	0.861806	8.833604	0.005756	0.000220	-0.004234	-0.512451	0.559082	-0.647949	0.562691	-0.144952	-0.158602	-0.798256
03334		3.951675	0.866932	8.816111	0.004834	0.000349	-0.004937	-0.507568	0.562012	-0.647217	0.562669	-0.144951	-0.158588	-0.798275
03335		3.970120	0.863442	8.812472	0.002708	0.000165	-0.004040	-0.506836	0.556885	-0.644775	0.562696	-0.144969	-0.158519	-0.798266
03336		3.951270	0.868919	8.816097	0.000262	0.001344	-0.003765	-0.504150	0.565430	-0.649170	0.562696	-0.144983	-0.158437	-0.798280
03337		3.960011	0.857376	8.823628	0.003402	-0.003833	-0.005250	-0.510010	0.554199	-0.644287	0.562748	-0.145022	-0.158382	-0.798247
03338		3.962556	0.858050	8.832731	0.003354	-0.004713	-0.004557	-0.511963	0.568115	-0.652344	0.562697	-0.145074	-0.158400	-0.798270
03339		3.970096	0.847059	8.830438	0.000721	-0.002217	-0.003366	-0.506104	0.553955	-0.653076	0.562736	-0.145137	-0.158323	-0.798246
03340		3.975329	0.866321	8.830470	-0.000502	-0.001628	-0.003228	-0.511230	0.560547	-0.642822	0.562749	-0.145105	-0.158287	-0.798250
03341		3.962170	0.859752	8.822427	-0.002075	-0.001458	-0.001556	-0.501953	0.558838	-0.649902	0.562742	-0.145213	-0.158192	-0.798254
03342		3.969151	0.847385	8.820518	-0.004037	0.000095	-0.001276	-0.507324	0.562256	-0.653076	0.562810	-0.145222	-0.158061	-0.798231
03343		3.970770	0.846059	8.830231	-0.005095	0.000269	-0.003517	-0.505615	0.555908	-0.644043	0.562843	-0.145245	-0.157931	-0.798229
03344		3.968348	0.836178	8.830150	-0.001726	-0.001038	-0.003091	-0.508057	0.560303	-0.643311	0.562838	-0.145287	-0.157852	-0.798241
03345		3.968339	0.836663	8.830108	0.003260	0.000520	-0.003268	-0.510986	0.558838	-0.646240	0.562844	-0.145311	-0.157796	-0.798243
03346		3.961374	0.849687	8.831948	0.003863	-0.000400	-0.004949	-0.510498	0.556396	-0.644775	0.562816	-0.145319	-0.157780	-0.798264
03347		3.960705	0.861743	8.812578	0.004673	-0.003541	-0.006085	-0.511963	0.559326	-0.654297	0.562760	-0.145348	-0.157803	-0.798294
03348		3.965819	0.841683	8.810134	0.001762	-0.003641	-0.004350	-0.508301	0.557861	-0.641357	0.562748	-0.145352	-0.157804	-0.798302
03349		3.973189	0.860885	8.819517	0.001579	-0.004477	-0.005196	-0.511963	0.553955	-0.639648	0.562704	-0.145436	-0.157779	-0.798323
03350		3.983114	0.858871	8.817405	-0.001773	-0.001919	-0.002397	-0.512695	0.554443	-0.653320	0.562641	-0.145528	-0.157724	-0.798361
03351		3.957603	0.835310	8.820485	-0.000133	-0.002110	-0.003301	-0.509277	0.563232	-0.648926	0.562613	-0.145516	-0.157719	-0.798384
03352		3.964100	0.844429	8.839433	0.003908	-0.004358	-0.003788	-0.504883	0.560547	-0.647705	0.562627	-0.145557	-0.157707	-0.798369
03353		3.979370	0.832172	8.825632	0.004188	-0.003916	-0.006092	-0.496826	0.559570	-0.648926	0.562632	-0.145566	-0.157697	-0.798365
03354		3.964557	0.857880	8.819413	0.004371	-0.003080	-0.005248	-0.504639	0.560547	-0.649414	0.562701	-0.145525	-0.157667	-0.798330
03355		3.966641	0.858607	8.828721	0.002961	-0.001174	-0.004192	-0.515869	0.557861	-0.647949	0.562735	-0.145508	-0.157627	-0.798317
03356		3.961991	0.840607	8.828328	0.001622	-0.001443	-0.004130	-0.506104	0.550293	-0.651611	0.562679	-0.145539	-0.157616	-0.798353
03357		3.980113	0.826799	8.834032	0.002340	-0.001506	-0.005736	-0.500977	0.560791	-0.645020	0.562650	-0.145469	-0.157633	-0.798383
03358		3.973396	0.839979	8.835736	0.005085	-0.000988	-0.005093	-0.507080	0.556885	-0.653809	0.562692	-0.145451	-0.157594	-0.798364
03359		3.969890	0.842243	8.816460	0.001481	0.000755	-0.003907	-0.501465	0.561035	-0.649170	0.562712	-0.145388	-0.157559	-0.798369
03360		3.964413	0.853963	8.828061	-0.000528	0.001427	-0.002931	-0.512451	0.564941	-0.647217	0.562780	-0.145366	-0.157454	-0.798346
03361		3.967788	0.822940	8.835694	0.000947	0.001653	-0.001455	-0.507080	0.559814	-0.652832	0.562803	-0.145402	-0.157366	-0.798340
03362		3.962885	0.844440	8.837878	-0.000898	0.001909	-0.002860	-0.514404	0.558350	-0.640869	0.562837	-0.145367	-0.157283	-0.798339
03363		3.948653	0.828852	8.839417	0.005757	-0.001930	-0.006007	-0.508301	0.563965	-0.647217	0.562755	-0.145414	-0.157299	-0.798385
03364		3.960206	0.827618	8.846822	0.004258	-0.003938	-0.005326	-0.507812	0.565186	-0.644043	0.562755	-0.145454	-0.157286	-0.798380
03365		3.969382	0.836829	8.825432	0.001301	-0.004919	-0.002894	-0.509766	0.556152	-0.651123	0.562771	-0.145554	-0.157232	-0.798362
03366		3.956377	0.821053	8.826448	0.002827	-0.005967	-0.003875	-0.505615	0.558350	-0.647217	0.562748	-0.145571	-0.157264	-0.798368
03367		3.974088	0.848107	8.824328	0.002320	-0.005442	-0.005344	-0.497070	0.561279	-0.646484	0.562735	-0.145605	-0.157261	-0.798372
03368		3.981672	0.837489	8.821999	0.004184	-0.001761	-0.004336	-0.507568	0.554199	-0.649658	0.562807	-0.145580	-0.157215	-0.798335
03369		3.972464	0.840802	8.823667	0.000443	0.000023	-0.004687	-0.502930	0.558594	-0.655518	0.562784	-0.145546	-0.157183	-0.798363
03370		3.961995	0.823852	8.844307	0.001877	-0.002784	-0.004280	-0.504639	0.569336	-0.649902	0.562828	-0.145498	-0.157167	-0.798345
03371		3.963398	0.835118	8.834368	0.005550	-0.004546	-0.004699	-0.502197	0.568115	-0.648926	0.562889	-0.145528	-0.157147	-0.798300
03372		3.979000	0.823457	8.820374	0.007884	-0.006579	-0.005055	-0.512207	0.557373	-0.653076	0.562954	-0.145555	-0.157164	-0.798246
03373		3.967547	0.838749	8.842483	0.007514	-0.006097	-0.004985	-0.504395	0.562988	-0.644531	0.562922	-0.145539	-0.157250	-0.798254
03374		3.954066	0.844476	8.814877	0.004325	-0.003959	-0.004562	-0.506836	0.561523	-0.649414	0.562943	-0.145579	-0.157229	-0.798236
03375		3.966974	0.832422	8.841273	0.003841	-0.004336	-0.004566	-0.509277	0.561523	-0.653076	0.562954	-0.145596	-0.157229	-0.798225
03376		3.984137	0.819557	8.837016	0.003727	-0.005194	-0.004642	-0.507080	0.567871	-0.640381	0.562957	-0.145607	-0.157246	-0.798218
03377		3.973422	0.853746	8.840486	0.001921	-0.001906	-0.004977	-0.503906	0.565430	-0.655273	0.562969	-0.145694	-0.157166	-0.798209
03378		3.963293	0.827058	8.820724	0.001184	-0.003622	-0.001209	-0.504883	0.551270	-0.647949	0.563058	-0.145700	-0.157118	-0.798155
03379		3.967910	0.836246	8.830168	-0.000874	-0.001151	-0.003160	-0.512695	0.559814	-0.640625	0.563040	-0.145680	-0.157080	-0.798178
03380		3.956673	0.829219	8.831671	-0.001215	-0.003725	-0.003386	-0.505371	0.564453	-0.653076	0.562989	-0.145790	-0.157026	-0.798205
03381		3.996490	0.819918	8.833578	0.003426	-0.004733	-0.003802	-0.501709	0.555908	-0.649414	0.563035	-0.145798	-0.157018	-0.798173
03382		3.956573	0.831367	8.821190	0.002868	-0.002932	-0.002812	-0.511963	0.556641	-0.648926	0.563067	-0.145770	-0.157009	-0.798157
03383		3.959757	0.841252	8.820884	-0.001191	-0.004626	-0.001922	-0.509277	0.566162	-0.641357	0.563039	-0.145825	-0.156986	-0.798171
03384		3.963726	0.820580	8.808758	0.000359	-0.006574	-0.001440	-0.508057	0.566650	-0.654297	0.563054	-0.145964	-0.156935	-0.798145
03385		3.972501	0.828594	8.837095	-0.000707	-0.004250	-0.001919	-0.510254	0.565430	-0.659180	0.563107	-0.146007	-0.156881	-0.798111
03386		3.958340	0.822584	8.819171	0.000172	-0.005255	-0.000523	-0.509521	0.556641	-0.643555	0.563167	-0.146028	-0.156859	-0.798069
03387		3.972923	0.829244	8.826516	-0.001444	-0.005443	-0.003539	-0.504150	0.562744	-0.644287	0.563121	-0.146110	-0.156829	-0.798092
03388		3.958683	0.823063	8.808645	-0.001932	-0.003663	-0.001778	-0.510986	0.564941	-0.641357	0.563155	-0.146185	-0.156747	-0.798070
03389		3.960715	0.812780	8.827305	0.001603	-0.005381	-0.003743	-0.504883	0.559326	-0.643555	0.563136	-0.146291	-0.156716	-0.798071
03390		3.973602	0.821129	8.824921	0.005251	-0.006240	-0.005634	-0.507080	0.551514	-0.647949	0.563118	-0.146324	-0.156745	-0.798072
03391		3.966742	0.814492	8.845101	0.005045	-0.006701	-0.002556	-0.502197	0.566406	-0.647461	0.563095	-0.146318	-0.156812	-0.798076
03392		3.973708	0.814892	8.823414	0.006262	-0.004608	-0.006324	-0.500732	0.553223	-0.650879	0.563131	-0.146324	-0.156817	-0.798048
03393		3.967838	0.828582	8.824672	0.005804	-0.005885	-0.004863	-0.505615	0.556641	-0.651611	0.563140	-0.146274	-0.156878	-0.798040
03394		3.980071	0.827295	8.831764	0.004095	-0.005675	-0.004724	-0.502930	0.570068	-0.645996	0.563136	-0.146257	-0.156916	-0.798038
03395		3.984562	0.817980	8.810052	0.005133	-0.004942	-0.003948	-0.503662	0.564941	-0.651855	0.563204	-0.146304	-0.156895	-0.797985
03396		3.980252	0.830912	8.821007	0.005590	-0.003666	-0.005411	-0.516846	0.549316	-0.654053	0.563248	-0.146282	-0.156904	-0.797957
03397		3.982608	0.831919	8.830185	0.004135	-0.002639	-0.003656	-0.506836	0.563232	-0.640137	0.563166	-0.146224	-0.156968	-0.798012
03398		3.982295	0.822914	8.839471	0.001246	-0.000965	-0.004068	-0.507568	0.557373	-0.648682	0.563167	-0.146275	-0.156898	-0.798016
03399		3.983604	0.803487	8.818110	0.002357	-0.002410	-0.004287	-0.504639	0.554199	-0.652588	0.563155	-0.146264	-0.156890	-0.798028
03400		3.956958	0.821486	8.813691	0.002984	-0.004231	-0.004508	-0.511230	0.560059	-0.639404	0.563152	-0.146225	-0.156916	-0.798032
03401		3.971486	0.829373	8.820920	0.003912	-0.006514	-0.005574	-0.506348	0.563477	-0.645264	0.563088	-0.146312	-0.156931	-0.798058
03402		3.978447	0.829635	8.799227	0.005987	-0.005046	-0.004022	-0.510010	0.553711	-0.649414	0.563107	-0.146341	-0.156947	-0.798037
03403		3.974716	0.822241	8.838780	0.005960	-0.004147	-0.005489	-0.506836	0.559814	-0.645996	0.563059	-0.146307	-0.157006	-0.798065
03404		3.982959	0.822196	8.826876	0.005219	-0.003185	-0.005344	-0.508545	0.561279	-0.644287	0.563051	-0.146303	-0.157018	-0.798069
03405		3.979389	0.814720	8.816825	0.003510	-0.002976	-0.005203	-0.505859	0.561035	-0.648193	0.563033	-0.146328	-0.157005	-0.798080
03406		3.978737	0.836382	8.837667	0.004590	-0.001363	-0.005123	-0.505127	0.559570	-0.648682	0.563047	-0.146301	-0.156997	-0.798077
03407		3.968129	0.810463	8.818139	0.004333	-0.000023	-0.004975	-0.501953	0.566650	-0.647217	0.563063	-0.146254	-0.156981	-0.798077
03408		3.973440	0.810719	8.846743	0.006712	-0.001174	-0.006034	-0.509766	0.565430	-0.645996	0.563116	-0.146226	-0.156969	-0.798047
03409		3.968886	0.824624	8.808152	0.009757	-0.001110	-0.006245	-0.507568	0.558350	-0.646484	0.563117	-0.146197	-0.156999	-0.798046
03410		3.971477	0.836826	8.807852	0.009715	-0.001988	-0.005550	-0.505859	0.560059	-0.643066	0.563107	-0.146144	-0.157054	-0.798051
03411		3.978160	0.817289	8.815135	0.005261	-0.002307	-0.006043	-0.510254	0.566406	-0.649902	0.563093	-0.146147	-0.157052	-0.798061
03412		3.972883	0.820566	8.835746	0.006857	-0.003374	-0.006261	-0.502930	0.562744	-0.653809	0.563095	-0.146146	-0.157073	-0.798056
03413		3.970248	0.823660	8.815961	0.006519	-0.005950	-0.006487	-0.502930	0.560303	-0.641846	0.563127	-0.146122	-0.157120	-0.798029
03414		3.975728	0.834957	8.824779	0.008485	-0.007498	-0.006779	-0.510986	0.563965	-0.646240	0.563117	-0.146153	-0.157182	-0.798018
03415		3.986099	0.834854	8.822255	0.006072	-0.003290	-0.005422	-0.509033	0.565186	-0.639893	0.563105	-0.146170	-0.157194	-0.798021
03416		3.988221	0.836153	8.831518	0.005001	-0.000968	-0.005900	-0.505371	0.565674	-0.652588	0.563092	-0.146203	-0.157160	-0.798030
03417		3.976548	0.831264	8.833097	0.009797	-0.000231	-0.006952	-0.511230	0.550049	-0.653320	0.563132	-0.146121	-0.157192	-0.798011
03418		3.983360	0.821940	8.831051	0.006380	0.000183	-0.006668	-0.509521	0.557373	-0.648682	0.563070	-0.146014	-0.157241	-0.798065
03419		3.974606	0.836187	8.823163	0.005855	-0.001072	-0.005973	-0.505371	0.555420	-0.647461	0.563043	-0.145972	-0.157259	-0.798088
03420		3.987949	0.845156	8.830784	0.009054	0.000731	-0.006810	-0.515869	0.555664	-0.650391	0.563030	-0.145878	-0.157296	-0.798107
03421		3.974198	0.800697	8.820872	0.006680	-0.000279	-0.007515	-0.501953	0.560303	-0.643799	0.562951	-0.145820	-0.157332	-0.798166
03422		3.985316	0.840421	8.830421	0.007605	-0.000402	-0.006816	-0.508301	0.564697	-0.651611	0.562966	-0.145778	-0.157336	-0.798163
03423		3.971649	0.835748	8.822542	0.004783	0.001248	-0.006454	-0.509277	0.559814	-0.652344	0.562982	-0.145731	-0.157308	-0.798165
03424		3.971509	0.837380	8.822450	0.005143	-0.001007	-0.004362	-0.506592	0.559570	-0.648926	0.562991	-0.145690	-0.157312	-0.798166
03425		3.978550	0.827378	8.820383	0.006338	-0.000695	-0.005976	-0.507812	0.562988	-0.651367	0.562993	-0.145645	-0.157321	-0.798171
03426		3.978350	0.829124	8.820309	0.003929	0.001351	-0.006384	-0.514160	0.561768	-0.650879	0.563003	-0.145600	-0.157287	-0.798179
03427		3.976064	0.831385	8.810780	0.007227	0.002241	-0.004982	-0.508545	0.563721	-0.642090	0.562991	-0.145536	-0.157286	-0.798199
03428		3.965182	0.815769	8.831748	0.006149	0.000626	-0.005059	-0.510010	0.564941	-0.650879	0.562993	-0.145535	-0.157256	-0.798204
03429		3.961224	0.848977	8.823830	0.006969	-0.002516	-0.006198	-0.509033	0.558350	-0.654785	0.562995	-0.145522	-0.157274	-0.798201
03430		3.974683	0.847923	8.840706	0.006676	-0.004215	-0.007119	-0.508545	0.554688	-0.655762	0.562973	-0.145483	-0.157329	-0.798213
03431		3.974122	0.860180	8.821074	0.004920	-0.002725	-0.004513	-0.502197	0.557617	-0.646729	0.562967	-0.145428	-0.157364	-0.798220
03432		3.987334	0.818195	8.836197	0.004177	-0.001763	-0.004367	-0.506592	0.556396	-0.653809	0.562990	-0.145410	-0.157351	-0.798210
03433		3.961688	0.836186	8.841578	0.005635	0.001144	-0.006534	-0.507812	0.554688	-0.651611	0.562987	-0.145320	-0.157358	-0.798227
03434		3.966629	0.827300	8.830025	0.009653	-0.000193	-0.008514	-0.509277	0.555420	-0.649658	0.562948	-0.145220	-0.157419	-0.798260
03435		3.971821	0.858908	8.820240	0.007975	-0.000883	-0.006900	-0.506836	0.555664	-0.668701	0.562913	-0.145157	-0.157459	-0.798289
03436		3.964378	0.862853	8.831414	0.005996	-0.001110	-0.004441	-0.505859	0.559326	-0.641846	0.562958	-0.145023	-0.157513	-0.798271
03437		3.985359	0.829240	8.825707	0.005182	-0.000130	-0.005067	-0.502197	0.559082	-0.652832	0.562954	-0.145021	-0.157486	-0.798279
03438		3.964016	0.825813	8.829388	0.003807	0.002652	-0.004702	-0.508545	0.557373	-0.645264	0.563003	-0.144943	-0.157447	-0.798267
03439		3.953082	0.840072	8.812071	0.006590	0.000128	-0.004368	-0.512207	0.554443	-0.648193	0.562992	-0.144914	-0.157445	-0.798280
03440		3.958757	0.850470	8.831184	0.005222	0.000746	-0.005768	-0.507568	0.563965	-0.648193	0.562940	-0.144869	-0.157443	-0.798325
03441		3.951355	0.853791	8.842400	0.003584	-0.003001	-0.004444	-0.505615	0.561035	-0.649902	0.562956	-0.144900	-0.157420	-0.798313
03442		3.968166	0.841142	8.838375	0.005474	-0.002364	-0.003745	-0.503418	0.558350	-0.649414	0.562987	-0.144890	-0.157421	-0.798292
03443		3.955046	0.836183	8.830302	0.006779	-0.001194	-0.005289	-0.518555	0.561279	-0.642090	0.563008	-0.144845	-0.157435	-0.798283
03444		3.959268	0.847273	8.839649	0.007332	-0.000834	-0.004517	-0.509033	0.555664	-0.652100	0.562946	-0.144867	-0.157435	-0.798323
03445		3.968579	0.846938	8.837636	0.006660	0.000110	-0.003600	-0.513916	0.564697	-0.650146	0.562951	-0.144804	-0.157450	-0.798328
03446		3.958009	0.821351	8.818283	0.007815	-0.000455	-0.004519	-0.506592	0.556152	-0.640137	0.562949	-0.144785	-0.157457	-0.798332
03447		3.961057	0.853681	8.848578	0.013722	-0.001154	-0.005804	-0.504639	0.560547	-0.638916	0.562928	-0.144732	-0.157527	-0.798342
03448		3.959329	0.857954	8.838591	0.015469	-0.000482	-0.006652	-0.511230	0.561279	-0.646240	0.562928	-0.144676	-0.157595	-0.798339
03449		3.953639	0.853223	8.818953	0.013912	-0.002477	-0.006726	-0.512695	0.560303	-0.656982	0.562904	-0.144633	-0.157678	-0.798347
03450		3.965076	0.853925	8.826238	0.010354	-0.002035	-0.007980	-0.515381	0.552246	-0.651123	0.562877	-0.144561	-0.157751	-0.798365
03451		3.960408	0.837819	8.826009	0.009671	0.001075	-0.005300	-0.502441	0.553955	-0.645996	0.562825	-0.144474	-0.157800	-0.798408
03452		3.944419	0.874473	8.860099	0.009189	0.000696	-0.005301	-0.509277	0.563232	-0.655273	0.562836	-0.144399	-0.157824	-0.798409
03453		3.955467	0.863833	8.827451	0.005261	-0.002317	-0.006068	-0.505371	0.564209	-0.656250	0.562843	-0.144383	-0.157828	-0.798406
03454		3.946077	0.857734	8.838534	0.003514	-0.002989	-0.005221	-0.501709	0.566406	-0.647949	0.562881	-0.144380	-0.157815	-0.798382
03455		3.944846	0.859180	8.828596	0.001948	-0.002818	-0.003528	-0.507568	0.562500	-0.652344	0.562941	-0.144426	-0.157758	-0.798343
03456		3.962002	0.855953	8.815129	0.002508	-0.000688	-0.004931	-0.514648	0.562012	-0.647461	0.562957	-0.144423	-0.157716	-0.798340
03457		3.964985	0.846732	8.843810	0.006516	0.000143	-0.005156	-0.509521	0.557373	-0.648438	0.562929	-0.144414	-0.157706	-0.798363
03458		3.939822	0.875100	8.839450	0.008043	-0.000903	-0.006149	-0.504150	0.559326	-0.657715	0.562905	-0.144375	-0.157731	-0.798383
03459		3.956150	0.863212	8.835618	0.005963	-0.000220	-0.005929	-0.504395	0.557617	-0.647461	0.562936	-0.144302	-0.157739	-0.798373
03460		3.965475	0.862740	8.833615	0.004999	-0.000977	-0.005927	-0.514648	0.562744	-0.647217	0.562933	-0.144283	-0.157728	-0.798380
03461		3.951614	0.847840	8.835293	0.006406	-0.000716	-0.005230	-0.509766	0.548096	-0.649658	0.562905	-0.144288	-0.157719	-0.798401
03462		3.949923	0.850375	8.825454	0.007490	-0.001266	-0.006924	-0.505859	0.553711	-0.646729	0.562841	-0.144222	-0.157768	-0.798448
03463		3.952208	0.861910	8.825230	0.005661	0.000245	-0.005086	-0.517334	0.556885	-0.651611	0.562829	-0.144181	-0.157762	-0.798465
03464		3.949271	0.844486	8.834757	0.006745	-0.000306	-0.006780	-0.506348	0.559326	-0.647949	0.562763	-0.144145	-0.157781	-0.798515
03465		3.961465	0.864073	8.823003	0.010818	-0.001255	-0.004059	-0.500977	0.555664	-0.652100	0.562785	-0.144100	-0.157822	-0.798499
03466		3.938660	0.862034	8.816883	0.007336	0.000932	-0.006712	-0.505859	0.551758	-0.653809	0.562805	-0.144014	-0.157832	-0.798498
03467		3.947121	0.852297	8.824616	0.008119	0.000846	-0.007561	-0.507324	0.558350	-0.649170	0.562783	-0.143912	-0.157869	-0.798525
03468		3.960515	0.861797	8.832089	0.009017	-0.002314	-0.007923	-0.508545	0.561035	-0.647217	0.562757	-0.143878	-0.157910	-0.798541
03469		3.960761	0.864453	8.831719	0.008343	-0.001369	-0.007005	-0.511475	0.560547	-0.651367	0.562738	-0.143860	-0.157926	-0.798555
03470		3.955449	0.877921	8.842909	0.005288	0.000724	-0.005019	-0.505371	0.559082	-0.648926	0.562731	-0.143834	-0.157903	-0.798569
03471		3.944029	0.882021	8.835131	0.004203	0.001275	-0.003325	-0.505615	0.560791	-0.653564	0.562761	-0.143808	-0.157859	-0.798561
03472		3.939359	0.864129	8.835162	0.003717	-0.000869	-0.001145	-0.503174	0.558594	-0.656006	0.562821	-0.143798	-0.157826	-0.798527
03473		3.944711	0.854092	8.823623	0.005551	-0.000616	-0.005164	-0.508301	0.552979	-0.647705	0.562854	-0.143744	-0.157826	-0.798513
03474		3.964506	0.881752	8.840602	0.008825	-0.000990	-0.007011	-0.497803	0.555420	-0.651611	0.562812	-0.143693	-0.157866	-0.798544
03475		3.932200	0.881733	8.836406	0.007284	0.002226	-0.004257	-0.506592	0.559570	-0.659668	0.562871	-0.143600	-0.157859	-0.798521
03476		3.949474	0.859252	8.852057	0.004877	0.000329	-0.004247	-0.513916	0.561035	-0.659180	0.562907	-0.143540	-0.157850	-0.798508
03477		3.955198	0.859526	8.830892	0.007330	-0.000833	-0.004542	-0.508301	0.558350	-0.648438	0.562910	-0.143492	-0.157873	-0.798511
03478		3.951930	0.872699	8.851536	0.007452	-0.002143	-0.006233	-0.513672	0.562256	-0.645996	0.562889	-0.143479	-0.157892	-0.798524
03479		3.948309	0.865540	8.841610	0.005849	-0.002846	-0.003834	-0.508545	0.558105	-0.647217	0.562869	-0.143520	-0.157883	-0.798532
03480		3.951029	0.876617	8.841196	0.005103	-0.001885	-0.003689	-0.510254	0.553955	-0.650391	0.562866	-0.143531	-0.157871	-0.798535
03481		3.947273	0.868367	8.831440	-0.000574	-0.001646	-0.004009	-0.506104	0.551025	-0.654053	0.562835	-0.143556	-0.157818	-0.798562
03482		3.949459	0.868557	8.840800	0.001880	-0.002808	-0.004305	-0.502930	0.560059	-0.650391	0.562823	-0.143544	-0.157812	-0.798574
03483		3.938392	0.861990	8.842378	0.001168	-0.002736	-0.002683	-0.505371	0.561768	-0.649902	0.562860	-0.143576	-0.157763	-0.798552
03484		3.960380	0.877828	8.828664	0.004442	-0.003110	-0.004532	-0.505859	0.559326	-0.651367	0.562876	-0.143596	-0.157749	-0.798540
03485		3.941339	0.863713	8.851252	0.001327	-0.003173	-0.005077	-0.509033	0.564697	-0.651123	0.562874	-0.143625	-0.157715	-0.798543
03486		3.937870	0.855372	8.841382	0.001327	-0.003173	-0.005077	-0.507080	0.561768	-0.649414	0.562873	-0.143675	-0.157668	-0.798544
03487		3.952355	0.873113	8.839057	0.003035	-0.003374	-0.005229	-0.508057	0.560547	-0.651855	0.562870	-0.143710	-0.157644	-0.798545
03488		3.943429	0.876296	8.840609	0.000618	-0.001339	-0.005636	-0.504395	0.560547	-0.653076	0.562859	-0.143728	-0.157590	-0.798560
03489		3.947381	0.866071	8.819374	0.002769	-0.003797	-0.002905	-0.501953	0.554443	-0.650635	0.562893	-0.143750	-0.157571	-0.798535
03490		3.933061	0.870664	8.841792	0.001843	-0.003682	-0.003604	-0.514648	0.553223	-0.646973	0.562907	-0.143764	-0.157553	-0.798527
03491		3.941333	0.869801	8.829945	0.003408	-0.003854	-0.005304	-0.506592	0.561279	-0.646729	0.562837	-0.143795	-0.157558	-0.798569
03492		3.946790	0.849915	8.827829	0.004441	-0.003109	-0.004536	-0.512695	0.553955	-0.650146	0.562838	-0.143824	-0.157542	-0.798566
03493		3.942530	0.872791	8.829116	0.005633	-0.002801	-0.006163	-0.509277	0.554688	-0.652100	0.562784	-0.143814	-0.157566	-0.798601
03494		3.931202	0.857395	8.840183	0.005079	-0.004929	-0.004753	-0.512695	0.562012	-0.647705	0.562761	-0.143821	-0.157598	-0.798610
03495		3.957231	0.872727	8.845392	0.001627	-0.005402	-0.003746	-0.502686	0.557861	-0.649170	0.562738	-0.143902	-0.157570	-0.798618
03496		3.952015	0.854524	8.835409	-0.001560	-0.005454	-0.005063	-0.510498	0.556641	-0.649414	0.562732	-0.143970	-0.157522	-0.798619
03497		3.954626	0.854798	8.844577	0.002661	-0.002895	-0.005160	-0.508789	0.560791	-0.647461	0.562700	-0.143989	-0.157507	-0.798641
03498		3.941853	0.848874	8.836521	0.001699	-0.003654	-0.005155	-0.497070	0.555908	-0.652344	0.562680	-0.144039	-0.157472	-0.798653
03499		3.933274	0.852034	8.837930	0.002072	-0.004134	-0.005229	-0.507080	0.553711	-0.658936	0.562709	-0.144040	-0.157461	-0.798635
03500		3.938584	0.862364	8.846774	0.003722	-0.008253	-0.005736	-0.505127	0.555664	-0.645996	0.562690	-0.144054	-0.157519	-0.798634
03501		3.942990	0.873076	8.845620	0.003027	-0.012115	-0.003693	-0.508789	0.555420	-0.648438	0.562670	-0.144166	-0.157563	-0.798619
03502		3.950438	0.852598	8.842693	0.000910	-0.012310	-0.002764	-0.510498	0.555420	-0.651611	0.562644	-0.144291	-0.157593	-0.798609
03503		3.963161	0.870538	8.820346	0.000572	-0.010956	-0.003396	-0.501221	0.552979	-0.652588	0.562614	-0.144394	-0.157618	-0.798607
03504		3.961236	0.862416	8.859494	0.000247	-0.011774	-0.005791	-0.507324	0.558105	-0.647705	0.562596	-0.144478	-0.157655	-0.798597
03505		3.967439	0.861719	8.827795	0.001450	-0.009772	-0.000234	-0.510010	0.563965	-0.650146	0.562616	-0.144585	-0.157660	-0.798562
03506		3.925588	0.882029	8.835852	-0.005211	-0.013346	-0.001597	-0.510254	0.567871	-0.649902	0.562613	-0.144782	-0.157618	-0.798537
03507		3.987007	0.836683	8.821969	-0.006147	-0.012823	0.001650	-0.508057	0.556152	-0.645752	0.562651	-0.144997	-0.157548	-0.798485
03508		3.977642	0.858645	8.833877	-0.003912	-0.013940	-0.000978	-0.512939	0.562012	-0.655273	0.562634	-0.145180	-0.157535	-0.798466
03509		3.985579	0.846763	8.821349	-0.001846	-0.010686	-0.001625	-0.516602	0.563721	-0.653564	0.562635	-0.145301	-0.157527	-0.798445
03510		3.976705	0.849147	8.812612	-0.001366	-0.010305	-0.001629	-0.504395	0.568359	-0.646973	0.562624	-0.145430	-0.157516	-0.798432
03511		3.994243	0.865794	8.819302	0.001553	-0.007150	-0.002353	-0.507568	0.559082	-0.655029	0.562669	-0.145524	-0.157485	-0.798389
03512		3.971506	0.831815	8.841938	-0.001239	-0.004638	-0.002676	-0.503906	0.558350	-0.650635	0.562689	-0.145561	-0.157449	-0.798375
03513		3.976715	0.840964	8.850936	-0.000901	-0.005992	-0.002048	-0.511475	0.559326	-0.648926	0.562718	-0.145618	-0.157417	-0.798351
03514		3.983071	0.830194	8.839007	0.003364	-0.004727	-0.004619	-0.508789	0.563232	-0.651123	0.562698	-0.145647	-0.157421	-0.798359
03515		3.984169	0.841026	8.828937	0.001498	-0.002328	-0.004246	-0.514648	0.558594	-0.653320	0.562709	-0.145664	-0.157383	-0.798355
03516		3.980627	0.842535	8.809631	0.001747	0.000266	-0.004806	-0.510742	0.564209	-0.645996	0.562687	-0.145640	-0.157348	-0.798382
03517		3.977541	0.814701	8.828934	0.005836	-0.001077	-0.006043	-0.503662	0.555908	-0.645020	0.562675	-0.145634	-0.157337	-0.798394
03518		3.972536	0.837842	8.830528	0.006158	0.001503	-0.005830	-0.513916	0.555664	-0.640625	0.562677	-0.145572	-0.157326	-0.798406
03519		3.963078	0.842109	8.832260	0.007691	-0.001304	-0.004652	-0.508789	0.562012	-0.649658	0.562635	-0.145558	-0.157343	-0.798435
03520		3.964867	0.843579	8.841694	0.004416	0.000827	-0.004971	-0.499268	0.562500	-0.644531	0.562644	-0.145525	-0.157313	-0.798440
03521		3.971996	0.843061	8.830274	0.003115	0.001420	-0.005593	-0.511963	0.558350	-0.642578	0.562678	-0.145499	-0.157253	-0.798433
03522		3.967386	0.835436	8.820873	0.004710	0.002122	-0.008003	-0.506592	0.562744	-0.651123	0.562623	-0.145464	-0.157219	-0.798485
03523		3.967321	0.857323	8.851476	0.004110	0.003054	-0.006305	-0.510742	0.559082	-0.648926	0.562635	-0.145402	-0.157173	-0.798496
03524		3.962585	0.849598	8.842141	0.003596	0.001800	-0.005598	-0.514648	0.561768	-0.657227	0.562620	-0.145362	-0.157136	-0.798522
03525		3.953699	0.832680	8.823354	0.004290	0.003901	-0.005461	-0.507812	0.555176	-0.653076	0.562617	-0.145279	-0.157100	-0.798546
03526		3.958868	0.843286	8.842593	0.006011	0.001530	-0.007384	-0.509277	0.560791	-0.647705	0.562596	-0.145193	-0.157107	-0.798575
03527		3.958925	0.865188	8.823347	0.008186	0.003886	-0.005780	-0.503662	0.551514	-0.653564	0.562599	-0.145107	-0.157093	-0.798592
03528		3.968470	0.845166	8.850595	0.006191	0.002376	-0.006540	-0.509277	0.558350	-0.649902	0.562598	-0.144996	-0.157101	-0.798611
03529		3.950738	0.841092	8.823883	0.008452	0.002546	-0.005927	-0.508301	0.556396	-0.643311	0.562594	-0.144909	-0.157108	-0.798628
03530		3.951780	0.843382	8.833573	0.009266	0.003334	-0.007487	-0.505615	0.560059	-0.650146	0.562563	-0.144822	-0.157112	-0.798664
03531		3.962471	0.853510	8.831730	0.010267	0.003209	-0.006016	-0.513916	0.562744	-0.647217	0.562583	-0.144716	-0.157127	-0.798667
03532		3.942473	0.851561	8.845220	0.014976	0.003983	-0.007895	-0.507812	0.562256	-0.644531	0.562560	-0.144594	-0.157178	-0.798695
03533		3.939286	0.846164	8.845363	0.014796	0.003135	-0.008744	-0.502441	0.557373	-0.653320	0.562546	-0.144481	-0.157228	-0.798716
03534		3.948659	0.866979	8.824118	0.008752	0.002078	-0.006784	-0.511963	0.561279	-0.644043	0.562565	-0.144376	-0.157247	-0.798718
03535		3.936609	0.861913	8.826086	0.005604	0.001132	-0.006614	-0.504395	0.563232	-0.649658	0.562530	-0.144358	-0.157216	-0.798751
03536		3.945610	0.851734	8.833733	0.005700	-0.002813	-0.005417	-0.503662	0.554688	-0.643311	0.562547	-0.144358	-0.157216	-0.798740
03537		3.959996	0.870093	8.831222	0.003406	-0.003858	-0.005325	-0.499023	0.562988	-0.656494	0.562528	-0.144383	-0.157208	-0.798750
03538		3.950344	0.843562	8.811970	0.004365	-0.003096	-0.005335	-0.509521	0.555908	-0.647217	0.562577	-0.144364	-0.157208	-0.798719
03539		3.939950	0.858092	8.843918	0.005919	-0.002850	-0.003093	-0.503418	0.554932	-0.655518	0.562573	-0.144363	-0.157220	-0.798720
03540		3.936388	0.850289	8.834099	0.003764	-0.002162	-0.003636	-0.508789	0.561279	-0.645752	0.562599	-0.144331	-0.157222	-0.798707
03541		3.944500	0.849451	8.822285	0.002145	-0.004154	-0.004467	-0.502441	0.556885	-0.649414	0.562586	-0.144384	-0.157193	-0.798712
03542		3.947406	0.850187	8.831292	0.003161	-0.006452	-0.004760	-0.505615	0.563477	-0.650146	0.562589	-0.144421	-0.157206	-0.798701
03543		3.982245	0.853371	8.844264	0.000543	-0.003098	-0.004240	-0.505371	0.552734	-0.651611	0.562604	-0.144462	-0.157156	-0.798692
03544		3.958619	0.859572	8.818882	0.004138	-0.002641	-0.003712	-0.504395	0.565674	-0.648682	0.562608	-0.144441	-0.157164	-0.798692
03545		3.939869	0.845870	8.841572	0.006040	-0.004165	-0.004791	-0.511719	0.563721	-0.646240	0.562634	-0.144462	-0.157171	-0.798668
03546		3.948249	0.845612	8.829578	0.004153	-0.004817	-0.005478	-0.510498	0.562988	-0.652832	0.562609	-0.144513	-0.157166	-0.798678
03547		3.955435	0.865699	8.838360	0.003299	-0.004720	-0.005399	-0.498779	0.564209	-0.647949	0.562598	-0.144544	-0.157164	-0.798680
03548		3.963534	0.855080	8.836089	0.002039	-0.005015	-0.004539	-0.506592	0.562256	-0.645264	0.562635	-0.144592	-0.157137	-0.798651
03549		3.943784	0.860522	8.829809	0.001022	-0.002717	-0.004246	-0.509766	0.559326	-0.647705	0.562637	-0.144639	-0.157085	-0.798651
03550		3.962767	0.846963	8.835439	0.001438	-0.004081	-0.002839	-0.508057	0.560547	-0.646240	0.562634	-0.144687	-0.157056	-0.798650
03551		3.956223	0.849798	8.846372	0.003747	-0.005211	-0.004700	-0.514893	0.558105	-0.642822	0.562622	-0.144731	-0.157055	-0.798650
03552		3.959539	0.860302	8.845646	0.001079	-0.005778	-0.004530	-0.498779	0.555420	-0.650879	0.562567	-0.144813	-0.157033	-0.798679
03553		3.945214	0.844423	8.837563	0.001602	-0.006281	-0.003054	-0.512695	0.567139	-0.649902	0.562599	-0.144846	-0.157033	-0.798651
03554		3.963340	0.831795	8.833104	0.006334	-0.009436	-0.004520	-0.502197	0.565674	-0.642822	0.562590	-0.144924	-0.157082	-0.798633
03555		3.960735	0.864657	8.823916	0.006334	-0.009436	-0.004521	-0.507080	0.551758	-0.658203	0.562608	-0.145008	-0.157119	-0.798598
03556		3.952990	0.858834	8.834463	0.005960	-0.008957	-0.004448	-0.504150	0.561768	-0.649170	0.562598	-0.145011	-0.157207	-0.798587
03557		3.974930	0.845723	8.849108	0.002724	-0.007719	-0.003281	-0.503662	0.557617	-0.643066	0.562619	-0.145077	-0.157214	-0.798559
03558		3.965128	0.849120	8.840685	0.002486	-0.005507	-0.003844	-0.513184	0.554199	-0.648682	0.562620	-0.145130	-0.157202	-0.798551
03559		3.973376	0.848101	8.828798	0.001425	-0.002326	-0.005031	-0.508545	0.558350	-0.647461	0.562576	-0.145140	-0.157179	-0.798585
03560		3.969659	0.839891	8.819109	0.003237	-0.001660	-0.005124	-0.512207	0.558838	-0.639648	0.562563	-0.145140	-0.157157	-0.798598
03561		3.957540	0.864000	8.831922	0.002053	-0.001967	-0.003486	-0.503662	0.555176	-0.658691	0.562537	-0.145184	-0.157109	-0.798617
03562		3.960930	0.844049	8.820522	0.003940	-0.001313	-0.002802	-0.508301	0.561279	-0.645752	0.562580	-0.145130	-0.157114	-0.798596
03563		3.963235	0.844714	8.829814	0.000765	-0.003557	-0.005872	-0.512207	0.559814	-0.645996	0.562556	-0.145177	-0.157073	-0.798612
03564		3.964167	0.855280	8.819743	0.001948	-0.002828	-0.003556	-0.507812	0.566895	-0.650391	0.562541	-0.145212	-0.157040	-0.798624
03565		3.958562	0.837651	8.810058	0.004884	-0.003598	-0.003875	-0.510742	0.557617	-0.646729	0.562568	-0.145232	-0.157035	-0.798602
03566		3.955765	0.840340	8.840125	0.004269	-0.005713	-0.003232	-0.509033	0.550781	-0.650879	0.562556	-0.145270	-0.157050	-0.798600
03567		3.961319	0.860539	8.839190	0.003415	-0.005616	-0.003151	-0.508057	0.561279	-0.649170	0.562540	-0.145282	-0.157077	-0.798604
03568		3.967820	0.850271	8.827221	0.003715	-0.006084	-0.004004	-0.510010	0.560059	-0.651123	0.562543	-0.145324	-0.157087	-0.798593
03569		3.959607	0.853720	8.828475	0.004299	-0.004841	-0.003941	-0.506592	0.554688	-0.652588	0.562542	-0.145343	-0.157100	-0.798587
03570		3.962021	0.844959	8.847275	0.003400	-0.003861	-0.005343	-0.506836	0.560547	-0.648438	0.562531	-0.145334	-0.157113	-0.798594
03571		3.953571	0.848507	8.848630	0.005228	-0.004949	-0.003247	-0.506592	0.566406	-0.642090	0.562548	-0.145355	-0.157129	-0.798575
03572		3.975353	0.854856	8.844181	0.002217	-0.004169	-0.003703	-0.510498	0.556396	-0.648438	0.562562	-0.145421	-0.157088	-0.798561
03573		3.955339	0.850561	8.847642	0.002142	-0.004158	-0.004480	-0.510498	0.559082	-0.641846	0.562538	-0.145447	-0.157079	-0.798575
03574		3.965621	0.849341	8.845242	0.003041	-0.005137	-0.003079	-0.507568	0.551758	-0.641602	0.562523	-0.145505	-0.157067	-0.798577
03575		3.968167	0.839307	8.814238	0.001812	-0.004562	-0.002922	-0.506348	0.557129	-0.655518	0.562503	-0.145545	-0.157052	-0.798587
03576		3.951916	0.834463	8.836863	0.004254	-0.003534	-0.001470	-0.507568	0.555420	-0.641602	0.562545	-0.145530	-0.157065	-0.798558
03577		3.964284	0.852547	8.824744	0.002051	-0.001969	-0.003490	-0.506836	0.558838	-0.644531	0.562533	-0.145550	-0.157028	-0.798570
03578		3.953042	0.836255	8.836190	0.002771	-0.003798	-0.002935	-0.508057	0.559326	-0.649658	0.562541	-0.145583	-0.157009	-0.798562
03579		3.972549	0.832973	8.831939	0.003999	-0.004373	-0.003094	-0.505371	0.561279	-0.648926	0.562552	-0.145599	-0.157014	-0.798550
03580		3.975478	0.843645	8.831330	0.003729	-0.003034	-0.002949	-0.510986	0.557861	-0.651367	0.562582	-0.145608	-0.157002	-0.798530
03581		3.960603	0.828204	8.823543	0.003474	-0.003873	-0.004571	-0.506104	0.554932	-0.647217	0.562566	-0.145615	-0.157008	-0.798539
03582		3.967312	0.838480	8.842070	0.004403	-0.003981	-0.003878	-0.509766	0.563477	-0.646729	0.562565	-0.145617	-0.157020	-0.798537
03583		3.956688	0.842083	8.834005	0.002904	-0.002066	-0.003574	-0.505371	0.556641	-0.645020	0.562572	-0.145638	-0.156986	-0.798534
03584		3.952875	0.823946	8.834011	0.002396	-0.003319	-0.002861	-0.514404	0.565674	-0.651611	0.562582	-0.145659	-0.156965	-0.798528
03585		3.976420	0.839797	8.829550	0.004536	-0.002248	-0.004517	-0.513428	0.563965	-0.650879	0.562577	-0.145663	-0.156955	-0.798533
03586		3.956004	0.836114	8.833167	0.005466	-0.002355	-0.003823	-0.512939	0.561279	-0.650146	0.562579	-0.145660	-0.156956	-0.798531
03587		3.967917	0.845023	8.830776	0.004461	-0.002238	-0.005294	-0.505859	0.557861	-0.651855	0.562560	-0.145655	-0.156952	-0.798547
03588		3.966203	0.836868	8.830611	0.004208	-0.002652	-0.002958	-0.514648	0.562012	-0.650391	0.562585	-0.145641	-0.156954	-0.798531
03589		3.975925	0.836123	8.828410	0.005570	-0.001495	-0.003756	-0.512207	0.558350	-0.653564	0.562579	-0.145626	-0.156953	-0.798538
03590		3.953512	0.833075	8.822471	0.007501	-0.002145	-0.005551	-0.511475	0.558105	-0.656494	0.562565	-0.145581	-0.156990	-0.798549
03591		3.965204	0.833315	8.829695	0.010660	-0.003372	-0.007507	-0.510254	0.566406	-0.650635	0.562541	-0.145513	-0.157077	-0.798561
03592		3.966067	0.846184	8.819382	0.010660	-0.003372	-0.007509	-0.505859	0.560547	-0.641602	0.562532	-0.145481	-0.157138	-0.798562
03593		3.977716	0.846487	8.826615	0.007979	-0.001764	-0.005562	-0.504395	0.561523	-0.651123	0.562530	-0.145463	-0.157152	-0.798564
03594		3.979561	0.848284	8.836016	0.005730	0.001108	-0.005107	-0.511963	0.564209	-0.652344	0.562557	-0.145408	-0.157137	-0.798557
03595		3.962576	0.864269	8.839623	0.008798	0.002073	-0.006073	-0.509766	0.558838	-0.646729	0.562561	-0.145329	-0.157145	-0.798568
03596		3.955625	0.847648	8.830537	0.006041	0.003691	-0.004902	-0.497314	0.557861	-0.645752	0.562561	-0.145259	-0.157111	-0.798587
03597		3.954696	0.840058	8.840388	0.008694	0.001211	-0.006143	-0.512695	0.553467	-0.657715	0.562593	-0.145180	-0.157125	-0.798576
03598		3.960077	0.841221	8.819154	0.010972	-0.000789	-0.007309	-0.500000	0.555176	-0.659180	0.562563	-0.145075	-0.157204	-0.798601
03599		3.954846	0.855718	8.830107	0.010569	-0.001181	-0.006526	-0.512207	0.562256	-0.651367	0.562595	-0.144966	-0.157281	-0.798583
03600		3.956395	0.858542	8.839540	0.010381	0.002769	-0.008510	-0.512695	0.565674	-0.650879	0.562571	-0.144866	-0.157303	-0.798613
03601		3.959000	0.840613	8.828417	0.009770	0.000655	-0.007863	-0.505371	0.556885	-0.657227	0.562553	-0.144804	-0.157326	-0.798633
03602		3.948070	0.866047	8.850852	0.007436	0.000915	-0.005281	-0.513184	0.556885	-0.648438	0.562576	-0.144716	-0.157346	-0.798629
03603		3.964599	0.854547	8.847053	0.008909	-0.001869	-0.004876	-0.503174	0.553467	-0.649170	0.562555	-0.144679	-0.157383	-0.798643
03604		3.940383	0.852154	8.831469	0.007801	-0.002617	-0.006416	-0.508789	0.559570	-0.654541	0.562547	-0.144636	-0.157425	-0.798648
03605		3.940886	0.854780	8.830990	0.009808	-0.003278	-0.007438	-0.504639	0.567139	-0.650391	0.562533	-0.144587	-0.157491	-0.798654
03606		3.962227	0.862852	8.826503	0.009508	-0.002808	-0.006586	-0.507812	0.558105	-0.648682	0.562555	-0.144563	-0.157529	-0.798635
03607		3.962468	0.865126	8.826172	0.005445	-0.000608	-0.006031	-0.496094	0.560303	-0.651611	0.562543	-0.144534	-0.157523	-0.798650
03608		3.941819	0.861521	8.829919	0.005091	-0.001878	-0.003759	-0.509277	0.556641	-0.653564	0.562606	-0.144511	-0.157520	-0.798610
03609		3.954914	0.840058	8.816569	0.006039	-0.004166	-0.004832	-0.506836	0.557861	-0.645752	0.562598	-0.144500	-0.157553	-0.798611
03610		3.941159	0.855605	8.829120	0.006637	-0.005106	-0.006539	-0.507080	0.558105	-0.650146	0.562574	-0.144514	-0.157586	-0.798620
03611		3.959238	0.864440	8.855135	0.006262	-0.004628	-0.006465	-0.511719	0.560547	-0.652100	0.562557	-0.144514	-0.157619	-0.798625
03612		3.945150	0.868906	8.827707	0.004228	-0.004837	-0.004732	-0.506104	0.561523	-0.646729	0.562544	-0.144539	-0.157628	-0.798627
03613		3.962738	0.866014	8.813875	0.002248	-0.003307	-0.004420	-0.508789	0.558350	-0.652588	0.562550	-0.144575	-0.157597	-0.798623
03614		3.961118	0.847747	8.823456	0.003075	-0.004271	-0.003795	-0.515137	0.562256	-0.648438	0.562553	-0.144594	-0.157594	-0.798618
03615		3.940322	0.874164	8.837679	0.003017	-0.006448	-0.006339	-0.501953	0.553223	-0.650635	0.562505	-0.144657	-0.157597	-0.798640
03616		3.958314	0.851938	8.843036	0.004243	-0.009638	-0.003593	-0.513184	0.567383	-0.649170	0.562512	-0.144709	-0.157650	-0.798615
03617		3.966067	0.860993	8.811198	0.002160	-0.008969	-0.003347	-0.500977	0.562012	-0.651123	0.562509	-0.144816	-0.157649	-0.798598
03618		3.948392	0.827138	8.853255	0.002160	-0.008970	-0.003348	-0.506592	0.559814	-0.646240	0.562542	-0.144893	-0.157662	-0.798558
03619		3.942279	0.859425	8.824522	0.003703	-0.014814	-0.003224	-0.506348	0.558105	-0.653564	0.562534	-0.145031	-0.157728	-0.798525
03620		3.966590	0.875427	8.809118	0.002824	-0.015589	-0.002430	-0.508545	0.557129	-0.646240	0.562540	-0.145160	-0.157803	-0.798484
03621		3.961990	0.848673	8.848394	0.000313	-0.016182	-0.000688	-0.511475	0.554688	-0.639160	0.562536	-0.145335	-0.157844	-0.798446
03622		3.997857	0.870984	8.830890	-0.001667	-0.014652	-0.000374	-0.503174	0.554199	-0.642578	0.562509	-0.145524	-0.157847	-0.798430
03623		3.986908	0.844054	8.841801	-0.001334	-0.011199	-0.000882	-0.508545	0.564697	-0.647217	0.562520	-0.145657	-0.157838	-0.798400
03624		3.995011	0.852060	8.809851	-0.000157	-0.010895	-0.002534	-0.508301	0.556152	-0.651611	0.562528	-0.145790	-0.157832	-0.798371
03625		3.971031	0.858554	8.824197	0.000449	-0.008781	-0.003186	-0.506836	0.556396	-0.645020	0.562523	-0.145864	-0.157840	-0.798359
03626		3.987140	0.835420	8.820039	-0.000898	-0.006884	-0.001322	-0.508057	0.554443	-0.644043	0.562535	-0.145949	-0.157807	-0.798342
03627		3.985354	0.846761	8.840156	-0.000302	-0.007824	-0.003033	-0.515869	0.567383	-0.647461	0.562518	-0.146034	-0.157792	-0.798342
03628		3.980899	0.828757	8.830190	0.004742	-0.008386	-0.004331	-0.506104	0.561768	-0.645508	0.562503	-0.146113	-0.157817	-0.798333
03629		3.975664	0.861333	8.811418	0.004391	-0.007038	-0.004965	-0.501465	0.553467	-0.641357	0.562504	-0.146163	-0.157838	-0.798319
03630		3.991485	0.829348	8.817019	0.001405	-0.008015	-0.003208	-0.510742	0.554443	-0.649902	0.562507	-0.146236	-0.157840	-0.798303
03631		3.985388	0.831996	8.827860	0.001659	-0.004553	-0.004491	-0.516113	0.565674	-0.640869	0.562485	-0.146257	-0.157834	-0.798315
03632		3.986672	0.842550	8.817479	0.003097	-0.006019	-0.001613	-0.508301	0.558105	-0.646973	0.562485	-0.146342	-0.157814	-0.798304
03633		3.967054	0.837911	8.820988	-0.000228	-0.005217	-0.005164	-0.511230	0.560791	-0.639160	0.562466	-0.146394	-0.157785	-0.798314
03634		4.009835	0.839389	8.821905	0.002337	-0.008117	-0.002520	-0.509521	0.558350	-0.643555	0.562456	-0.146492	-0.157780	-0.798304
03635		3.967303	0.869615	8.820661	-0.000726	-0.009086	-0.001539	-0.509521	0.559082	-0.642090	0.562455	-0.146604	-0.157761	-0.798288
03636		3.990799	0.824785	8.824476	-0.002058	-0.009375	-0.001443	-0.514404	0.558838	-0.647461	0.562452	-0.146732	-0.157728	-0.798273
03637		3.998198	0.822981	8.802523	-0.000327	-0.008695	-0.002329	-0.509766	0.559326	-0.645508	0.562434	-0.146829	-0.157718	-0.798269
03638		4.008115	0.841992	8.820336	0.001561	-0.008031	-0.001658	-0.510986	0.561035	-0.634277	0.562444	-0.146908	-0.157717	-0.798248
03639		3.998036	0.825439	8.831571	0.001609	-0.006292	-0.003077	-0.508057	0.558350	-0.642822	0.562425	-0.147001	-0.157688	-0.798250
03640		3.989892	0.828407	8.832897	0.002964	-0.005133	-0.003885	-0.513184	0.563965	-0.647705	0.562421	-0.147040	-0.157683	-0.798246
03641		4.005243	0.815895	8.819243	0.003906	-0.002180	-0.002133	-0.512451	0.563721	-0.649902	0.562443	-0.147050	-0.157662	-0.798233
03642		3.989209	0.830882	8.822543	0.004500	-0.003121	-0.003846	-0.511963	0.559570	-0.650146	0.562452	-0.147054	-0.157661	-0.798226
03643		3.985866	0.822687	8.812785	0.002134	-0.004170	-0.004507	-0.505615	0.555664	-0.651123	0.562442	-0.147074	-0.157652	-0.798232
03644		4.003545	0.829509	8.789042	0.004398	-0.003983	-0.003915	-0.510010	0.556152	-0.647705	0.562458	-0.147061	-0.157672	-0.798219
03645		4.012147	0.830150	8.826818	0.004319	-0.003975	-0.004694	-0.512695	0.563721	-0.650635	0.562445	-0.147061	-0.157686	-0.798225
03646		3.996345	0.845003	8.830022	0.001837	-0.003700	-0.003651	-0.506348	0.570068	-0.642334	0.562451	-0.147088	-0.157663	-0.798221
03647		3.981606	0.829200	8.822460	0.003544	-0.003889	-0.003828	-0.516357	0.570557	-0.648926	0.562482	-0.147135	-0.157638	-0.798195
03648		3.998037	0.847272	8.829038	0.004671	-0.005323	-0.004064	-0.505859	0.557861	-0.647949	0.562485	-0.147179	-0.157642	-0.798184
03649		4.000079	0.827801	8.807948	0.003567	-0.003020	-0.004539	-0.507080	0.555176	-0.652100	0.562494	-0.147174	-0.157640	-0.798179
03650		4.002674	0.819196	8.826854	0.004295	-0.004845	-0.003987	-0.510010	0.562012	-0.644531	0.562502	-0.147167	-0.157667	-0.798170
03651		4.005397	0.840110	8.816413	0.006911	-0.000333	-0.004611	-0.506104	0.561035	-0.647705	0.562511	-0.147133	-0.157667	-0.798170
03652		4.016663	0.839393	8.823890	0.002940	-0.000333	-0.005024	-0.514404	0.560791	-0.641846	0.562525	-0.147112	-0.157636	-0.798170
03653		3.995790	0.835428	8.827965	0.004749	0.000340	-0.005134	-0.510498	0.559814	-0.645020	0.562503	-0.147093	-0.157607	-0.798194
03654		4.008284	0.823347	8.805133	0.002564	0.000144	-0.004946	-0.511230	0.561035	-0.649902	0.562495	-0.147078	-0.157565	-0.798210
03655		4.006413	0.835680	8.835644	0.003746	0.003505	-0.005541	-0.506348	0.557129	-0.650879	0.562497	-0.147012	-0.157518	-0.798231
03656		3.984159	0.810953	8.809888	0.003960	0.002615	-0.002496	-0.509766	0.563721	-0.639893	0.562538	-0.146944	-0.157482	-0.798222
03657		3.989558	0.821300	8.828933	0.003246	0.002252	-0.004821	-0.510010	0.553711	-0.654541	0.562540	-0.146925	-0.157418	-0.798236
03658		4.002282	0.830192	8.836441	0.006682	0.002745	-0.005887	-0.510254	0.559326	-0.649658	0.562536	-0.146817	-0.157424	-0.798258
03659		3.977114	0.837057	8.811718	0.007434	0.001789	-0.006045	-0.503906	0.562012	-0.641113	0.562534	-0.146737	-0.157428	-0.798273
03660		3.999024	0.834627	8.827062	0.006306	0.003222	-0.005811	-0.510498	0.557617	-0.652832	0.562552	-0.146675	-0.157395	-0.798279
03661		3.978815	0.810231	8.810805	0.004952	0.002063	-0.005001	-0.504883	0.559570	-0.639404	0.562555	-0.146602	-0.157377	-0.798293
03662		3.986232	0.821188	8.839308	0.007434	0.001789	-0.006047	-0.508545	0.560059	-0.644287	0.562558	-0.146546	-0.157366	-0.798304
03663		3.990184	0.852121	8.828905	0.006299	0.000165	-0.006873	-0.509766	0.556396	-0.648193	0.562541	-0.146505	-0.157362	-0.798324
