// Start Time: Unknown
// Update Rate: 40.0Hz
// Filter Profile: human (46.1)
// Firmware Version: 4.6.0
PacketCounter	SampleTimeFine	Acc_X	Acc_Y	Acc_Z	Gyr_X	Gyr_Y	Gyr_Z	Mag_X	Mag_Y	Mag_Z	Quat_q0	Quat_q1	Quat_q2	Quat_q3
34822		4.841456	-1.904862	8.214849	-0.002083	-0.007069	0.001260	-0.629395	0.450439	-0.254150	0.337096	-0.278469	0.004518	-0.899334
34823		4.834547	-1.909421	8.210679	0.000352	-0.005241	0.001035	-0.635498	0.445557	-0.260498	0.337109	-0.278526	0.004495	-0.899311
34824		4.840878	-1.896811	8.209488	0.000277	-0.005098	0.001908	-0.625488	0.451904	-0.251709	0.337125	-0.278576	0.004470	-0.899290
34825		4.841224	-1.911877	8.201202	0.001247	-0.005553	0.000841	-0.618896	0.445312	-0.255371	0.337139	-0.278633	0.004435	-0.899267
34826		4.849427	-1.892930	8.187832	0.000877	-0.004592	0.001497	-0.634277	0.453125	-0.267578	0.337160	-0.278682	0.004412	-0.899244
34827		4.834648	-1.915565	8.197039	0.004292	-0.001080	-0.000641	-0.620117	0.456055	-0.256348	0.337167	-0.278678	0.004356	-0.899243
34828		4.841186	-1.916597	8.212673	0.003692	-0.001585	-0.000230	-0.629883	0.445068	-0.253174	0.337177	-0.278683	0.004308	-0.899238
34829		4.830992	-1.911510	8.205111	0.004237	-0.005167	-0.000369	-0.622559	0.449707	-0.254883	0.337189	-0.278726	0.004240	-0.899221
34830		4.837781	-1.882840	8.211950	0.003876	-0.002066	-0.000558	-0.629150	0.453613	-0.255615	0.337198	-0.278734	0.004192	-0.899215
34831		4.841111	-1.890922	8.215684	0.001328	-0.003799	0.002833	-0.628174	0.445068	-0.258789	0.337235	-0.278770	0.004173	-0.899190
34832		4.828265	-1.907789	8.212559	0.001891	-0.003101	0.001003	-0.628906	0.443359	-0.258301	0.337253	-0.278793	0.004142	-0.899176
34833		4.850414	-1.886102	8.218496	0.003276	-0.002571	-0.000148	-0.632812	0.437500	-0.258301	0.337262	-0.278802	0.004096	-0.899170
34834		4.847935	-1.877594	8.214357	-0.001238	-0.001059	0.003115	-0.631348	0.446289	-0.253662	0.337288	-0.278811	0.004113	-0.899157
34835		4.835458	-1.909537	8.227642	0.000221	-0.000673	0.001091	-0.633301	0.448975	-0.253418	0.337300	-0.278813	0.004107	-0.899153
34836		4.831317	-1.878574	8.226707	-0.009964	-0.006638	-0.000184	-0.628174	0.453613	-0.253662	0.337264	-0.278923	0.004191	-0.899132
34837		4.891550	-1.875933	8.245061	-0.022554	-0.006354	0.002805	-0.628174	0.445801	-0.262695	0.337227	-0.279075	0.004429	-0.899097
34838		4.835868	-1.891276	8.191411	-0.030715	0.000343	0.013445	-0.628906	0.445068	-0.259521	0.337271	-0.279171	0.004804	-0.899049
34839		4.777161	-1.962791	8.187152	-0.016797	-0.003253	0.005863	-0.627441	0.448486	-0.256104	0.337275	-0.279255	0.004978	-0.899020
34840		4.810163	-1.948095	8.199844	0.000541	-0.003827	0.003568	-0.632080	0.453369	-0.252930	0.337326	-0.279272	0.004972	-0.898996
34841		4.829618	-1.918663	8.201658	0.000505	-0.003633	0.002149	-0.627686	0.447510	-0.260254	0.337366	-0.279296	0.004977	-0.898973
34842		4.810311	-1.909454	8.210416	0.005313	-0.006206	0.002812	-0.621338	0.449463	-0.251953	0.337429	-0.279302	0.004910	-0.898948
34843		4.832476	-1.902221	8.208412	0.007141	-0.006780	0.000131	-0.632568	0.443848	-0.249023	0.337483	-0.279330	0.004826	-0.898920
34844		4.828313	-1.914046	8.208496	0.003521	-0.005581	0.003200	-0.630127	0.451660	-0.257324	0.337509	-0.279375	0.004779	-0.898896
34845		4.834878	-1.930474	8.215931	0.005948	-0.005895	0.003818	-0.632324	0.454346	-0.259033	0.337595	-0.279375	0.004714	-0.898864
34846		4.830338	-1.912402	8.207688	0.008118	-0.005340	0.001928	-0.635498	0.450439	-0.254639	0.337678	-0.279354	0.004623	-0.898840
34847		4.844805	-1.894044	8.210220	0.007185	-0.004834	0.000704	-0.622559	0.447266	-0.254395	0.337711	-0.279356	0.004534	-0.898828
34848		4.826125	-1.907708	8.191530	0.007700	-0.006326	0.002010	-0.626709	0.447510	-0.268311	0.337783	-0.279365	0.004444	-0.898798
34849		4.837134	-1.902401	8.218180	0.001681	-0.006902	0.003016	-0.632324	0.451172	-0.254150	0.337852	-0.279321	0.004399	-0.898786
34850		4.839499	-1.881605	8.188932	0.002269	-0.008537	0.003448	-0.623291	0.450684	-0.251221	0.337911	-0.279392	0.004360	-0.898742
34851		4.815465	-1.915496	8.206393	-0.001789	-0.005988	0.004340	-0.621826	0.439209	-0.259521	0.337996	-0.279465	0.004394	-0.898687
34852		4.811879	-1.913650	8.213938	0.000454	-0.005578	0.001575	-0.630371	0.448975	-0.252197	0.337984	-0.279448	0.004354	-0.898697
34853		4.831429	-1.899247	8.207544	-0.000613	-0.009015	0.001495	-0.625000	0.450684	-0.258545	0.337998	-0.279548	0.004340	-0.898661
34854		4.853740	-1.869816	8.232363	-0.002783	-0.009569	0.003386	-0.631836	0.449219	-0.252441	0.338086	-0.279598	0.004356	-0.898612
34855		4.831210	-1.908031	8.193458	-0.007625	-0.007044	0.005020	-0.626953	0.446045	-0.261719	0.338105	-0.279706	0.004431	-0.898571
34856		4.815986	-1.923861	8.221727	-0.002919	-0.007142	0.004288	-0.628418	0.448242	-0.255371	0.338149	-0.279692	0.004427	-0.898559
34857		4.865088	-1.885245	8.224655	-0.005530	-0.006346	0.004001	-0.624756	0.457275	-0.257568	0.338180	-0.279746	0.004477	-0.898530
34858		4.832535	-1.918746	8.202751	-0.005284	-0.002740	0.003404	-0.627441	0.446045	-0.262207	0.338345	-0.279734	0.004570	-0.898471
34859		4.815033	-1.934320	8.207675	0.000231	-0.005149	0.004192	-0.623779	0.456543	-0.257080	0.338384	-0.279669	0.004533	-0.898477
34860		4.821595	-1.921878	8.206316	0.000510	-0.007863	0.001541	-0.629395	0.454346	-0.253662	0.338558	-0.279692	0.004536	-0.898404
34861		4.844540	-1.900940	8.211611	-0.000335	-0.005603	0.002312	-0.627930	0.449707	-0.251709	0.338656	-0.279744	0.004550	-0.898351
34862		4.824753	-1.907374	8.212461	-0.000041	-0.006421	0.002527	-0.627930	0.445068	-0.263184	0.338694	-0.279821	0.004545	-0.898313
34863		4.833982	-1.903545	8.215080	-0.000408	-0.005460	0.003185	-0.625977	0.446533	-0.262451	0.338685	-0.279733	0.004499	-0.898344
34864		4.839724	-1.906638	8.205957	-0.003782	-0.006778	0.002191	-0.631836	0.455078	-0.254395	0.338696	-0.279678	0.004493	-0.898357
34865		4.810439	-1.948047	8.187840	-0.002961	-0.006948	0.002868	-0.623047	0.456543	-0.257812	0.338783	-0.279759	0.004525	-0.898299
34866		4.833273	-1.903126	8.220626	0.002969	-0.008128	-0.000138	-0.623291	0.453857	-0.256348	0.338984	-0.279752	0.004499	-0.898225
34867		4.852715	-1.888397	8.214341	-0.001379	-0.004759	0.000545	-0.627441	0.449463	-0.264893	0.339122	-0.279743	0.004529	-0.898176
34868		4.841805	-1.900286	8.198651	-0.006376	-0.004086	0.004774	-0.623535	0.450684	-0.252930	0.339172	-0.279628	0.004571	-0.898192
34869		4.831446	-1.904276	8.226472	-0.012325	-0.004801	0.004914	-0.626709	0.449219	-0.254395	0.339250	-0.279716	0.004730	-0.898135
34870		4.841676	-1.942265	8.217019	-0.017491	-0.005492	0.004313	-0.626221	0.453369	-0.258545	0.339234	-0.279818	0.004918	-0.898108
34871		4.832587	-1.926874	8.215890	-0.016233	-0.006766	0.003456	-0.627197	0.441650	-0.256104	0.339312	-0.279861	0.005091	-0.898064
34872		4.868354	-1.908178	8.215249	-0.022114	-0.007623	0.002721	-0.625732	0.441406	-0.258789	0.339076	-0.279962	0.005270	-0.898121
34873		4.839041	-1.909461	8.195638	-0.025844	-0.002103	0.009571	-0.625732	0.451660	-0.258301	0.338930	-0.279959	0.005524	-0.898175
34874		4.796100	-1.943089	8.189812	-0.025378	0.000828	0.010065	-0.625000	0.452393	-0.241943	0.339024	-0.279943	0.005837	-0.898143
34875		4.807291	-1.982580	8.204096	-0.018257	-0.005711	0.006458	-0.628662	0.451416	-0.254883	0.339063	-0.280250	0.006108	-0.898030
34876		4.843496	-1.948838	8.211440	-0.016398	-0.006480	0.005189	-0.627197	0.452881	-0.249268	0.339056	-0.280335	0.006274	-0.898005
34877		4.808886	-1.960734	8.192803	-0.012711	-0.003843	0.005560	-0.627441	0.452881	-0.252441	0.339099	-0.280468	0.006449	-0.897947
34878		4.832315	-1.956959	8.213982	-0.007268	-0.005864	0.003505	-0.625244	0.450439	-0.260498	0.339141	-0.280539	0.006529	-0.897908
34879		4.841667	-1.910736	8.215781	-0.012621	-0.002094	0.007556	-0.625244	0.452637	-0.250244	0.339212	-0.280423	0.006651	-0.897916
34880		4.828193	-1.954877	8.184532	-0.010922	-0.000493	0.009489	-0.623535	0.455078	-0.259521	0.339320	-0.280477	0.006827	-0.897857
34881		4.810113	-2.001880	8.197753	-0.006229	-0.002485	0.005883	-0.627441	0.452393	-0.249023	0.339520	-0.280353	0.006902	-0.897820
34882		4.832784	-1.968001	8.211068	-0.008020	-0.001858	0.006276	-0.624268	0.447998	-0.247070	0.339540	-0.280446	0.007024	-0.897782
34883		4.802120	-1.956804	8.212477	-0.006323	-0.004232	0.003884	-0.619385	0.445068	-0.250000	0.339465	-0.280568	0.007101	-0.897772
34884		4.828221	-1.955335	8.201674	-0.010399	-0.003821	0.005625	-0.626221	0.454834	-0.255127	0.339417	-0.280608	0.007212	-0.897777
34885		4.807753	-1.964196	8.202342	-0.009760	-0.003514	0.006631	-0.627441	0.459229	-0.254883	0.339536	-0.280596	0.007330	-0.897735
34886		4.791194	-1.989464	8.187051	-0.002175	-0.005039	0.004974	-0.617188	0.458252	-0.248535	0.339747	-0.280588	0.007375	-0.897657
34887		4.780759	-1.999669	8.171377	0.009503	-0.009061	0.000121	-0.621826	0.450684	-0.260254	0.340079	-0.280643	0.007315	-0.897515
34888		4.799198	-1.964771	8.205156	0.016315	-0.012698	-0.002253	-0.617920	0.451416	-0.253906	0.340140	-0.280483	0.007034	-0.897544
34889		4.827199	-1.957395	8.194624	0.017191	-0.010926	-0.000998	-0.622314	0.457764	-0.246094	0.340299	-0.280411	0.006807	-0.897508
34890		4.814776	-1.955595	8.175445	0.020461	-0.009276	-0.000548	-0.629639	0.452148	-0.255127	0.340562	-0.280508	0.006612	-0.897379
34891		4.801298	-1.950597	8.212391	0.020107	-0.010402	-0.001344	-0.627930	0.442871	-0.252441	0.340537	-0.280465	0.006310	-0.897404
34892		4.812795	-1.927298	8.222977	0.018017	-0.013184	-0.001781	-0.627686	0.452393	-0.264648	0.340247	-0.280489	0.005986	-0.897509
34893		4.829736	-1.960151	8.205509	0.015778	-0.015432	-0.004177	-0.619873	0.452393	-0.252686	0.340284	-0.280319	0.005660	-0.897550
34894		4.826920	-1.954273	8.188799	0.017251	-0.017383	-0.003952	-0.623535	0.454834	-0.261230	0.340440	-0.280369	0.005404	-0.897477
34895		4.829749	-1.942145	8.207295	0.010398	-0.017777	-0.003607	-0.628174	0.448486	-0.250977	0.340612	-0.280305	0.005183	-0.897433
34896		4.856134	-1.903403	8.219426	0.011107	-0.017611	-0.003477	-0.626465	0.450684	-0.252930	0.340461	-0.280462	0.004961	-0.897443
34897		4.836965	-1.908021	8.195576	0.002709	-0.015913	-0.002480	-0.629150	0.441895	-0.262695	0.340412	-0.280586	0.004851	-0.897423
34898		4.858785	-1.922407	8.196470	0.002507	-0.017573	-0.001314	-0.631592	0.450195	-0.261475	0.340111	-0.280521	0.004623	-0.897559
34899		4.844121	-1.936750	8.200097	-0.001251	-0.015838	-0.000188	-0.629395	0.449463	-0.253418	0.340021	-0.280514	0.004497	-0.897595
34900		4.851793	-1.939559	8.189815	-0.003221	-0.014729	0.000541	-0.632568	0.446289	-0.255615	0.339914	-0.280652	0.004455	-0.897593
34901		4.838314	-1.924515	8.209036	-0.001125	-0.014034	-0.000484	-0.627441	0.452881	-0.255371	0.339663	-0.280736	0.004345	-0.897662
34902		4.839259	-1.925383	8.183397	-0.003585	-0.013768	0.001201	-0.620850	0.443848	-0.253662	0.339734	-0.280814	0.004325	-0.897611
34903		4.818251	-1.944446	8.207443	-0.003099	-0.019243	-0.001827	-0.628174	0.458252	-0.255127	0.339664	-0.280925	0.004232	-0.897603
34904		4.862409	-1.909542	8.205050	-0.005221	-0.022079	0.000032	-0.626953	0.451660	-0.255615	0.339853	-0.281118	0.004223	-0.897471
34905		4.849124	-1.948771	8.180010	-0.002677	-0.024824	-0.000280	-0.633301	0.447510	-0.256348	0.339894	-0.281292	0.004128	-0.897402
34906		4.892060	-1.920180	8.189449	-0.005188	-0.022275	0.001444	-0.622803	0.448242	-0.251709	0.339695	-0.281455	0.004034	-0.897426
34907		4.871569	-1.934157	8.176862	-0.006603	-0.018379	0.001802	-0.621826	0.448975	-0.254150	0.339734	-0.281610	0.004027	-0.897363
34908		4.866182	-1.930826	8.191062	-0.004397	-0.018021	0.001316	-0.624512	0.447998	-0.253662	0.339840	-0.281693	0.003983	-0.897297
34909		4.878556	-1.936451	8.172152	-0.003845	-0.015233	0.000942	-0.625977	0.449951	-0.253174	0.339843	-0.281763	0.003936	-0.897274
34910		4.855311	-1.932272	8.200269	-0.004138	-0.014415	0.000730	-0.631348	0.458740	-0.254883	0.339864	-0.281844	0.003907	-0.897241
34911		4.848185	-1.937806	8.171117	-0.004340	-0.016076	0.001895	-0.623535	0.444336	-0.260010	0.340037	-0.281959	0.003904	-0.897139
34912		4.887611	-1.939062	8.166120	-0.002089	-0.013523	-0.001715	-0.623291	0.444824	-0.253906	0.339970	-0.281855	0.003776	-0.897198
34913		4.877670	-1.947295	8.205698	-0.003342	-0.010162	0.000607	-0.636230	0.454102	-0.258545	0.339906	-0.281841	0.003728	-0.897226
34914		4.894799	-1.924496	8.194937	0.000494	-0.007811	-0.000786	-0.618408	0.452881	-0.259277	0.339851	-0.281788	0.003640	-0.897264
34915		4.881209	-1.926828	8.175497	-0.001115	-0.003489	0.002201	-0.630859	0.445312	-0.249512	0.340225	-0.281580	0.003611	-0.897188
34916		4.876392	-1.916236	8.203397	-0.001584	-0.002190	0.002322	-0.626221	0.451416	-0.251709	0.339981	-0.281605	0.003609	-0.897273
34917		4.862758	-1.957638	8.172879	-0.001696	0.000235	0.003237	-0.625488	0.453613	-0.250977	0.340066	-0.281548	0.003641	-0.897258
34918		4.864331	-1.951808	8.160632	0.001695	-0.000540	0.002758	-0.627930	0.447510	-0.254639	0.340230	-0.281503	0.003647	-0.897210
34919		4.865099	-1.936308	8.168555	0.005934	0.000654	0.002118	-0.629639	0.451172	-0.244385	0.340181	-0.281358	0.003553	-0.897275
34920		4.849621	-1.934559	8.206252	0.004774	0.001840	-0.000180	-0.632324	0.447510	-0.250488	0.340098	-0.281420	0.003553	-0.897287
34921		4.879626	-1.940921	8.168398	0.006089	0.004599	0.000993	-0.633545	0.447510	-0.248779	0.339915	-0.281336	0.003492	-0.897383
34922		4.862195	-1.924643	8.190437	0.004169	0.005511	0.003146	-0.622070	0.450928	-0.257324	0.339711	-0.281290	0.003477	-0.897474
34923		4.857613	-1.936952	8.215621	0.000644	0.004483	0.003915	-0.619385	0.456543	-0.257324	0.339949	-0.281062	0.003470	-0.897456
34924		4.841119	-1.924914	8.181061	-0.000983	0.000402	0.003366	-0.629639	0.445557	-0.254639	0.340372	-0.280892	0.003498	-0.897349
34925		4.831389	-1.935917	8.189790	-0.001072	-0.003684	0.003617	-0.625244	0.446777	-0.253906	0.340216	-0.280852	0.003464	-0.897420
34926		4.856402	-1.947771	8.171436	-0.000581	-0.002842	0.002662	-0.628662	0.446777	-0.256836	0.340187	-0.280794	0.003442	-0.897449
34927		4.853190	-1.930334	8.187306	0.003725	-0.001791	0.001148	-0.625000	0.451904	-0.254150	0.340101	-0.280674	0.003348	-0.897520
34928		4.874158	-1.924039	8.185481	0.000579	0.000451	0.001877	-0.633057	0.454102	-0.254883	0.340220	-0.280586	0.003349	-0.897503
34929		4.829541	-1.927509	8.185322	0.002765	-0.001334	0.002224	-0.623535	0.452393	-0.258301	0.340223	-0.280545	0.003319	-0.897514
34930		4.848040	-1.942132	8.187998	0.004327	-0.001287	0.000735	-0.626709	0.451660	-0.259033	0.340413	-0.280386	0.003244	-0.897492
34931		4.860144	-1.901080	8.194374	0.003412	-0.003114	0.001771	-0.619629	0.443359	-0.258545	0.340518	-0.280258	0.003167	-0.897493
34932		4.837988	-1.913124	8.208236	0.000735	-0.002171	0.002379	-0.621582	0.444092	-0.253174	0.340543	-0.280089	0.003101	-0.897536
34933		4.835539	-1.928245	8.176459	0.003479	-0.003256	0.000897	-0.628906	0.447510	-0.253418	0.340493	-0.280031	0.003032	-0.897573
34934		4.833688	-1.924978	8.208417	0.003478	-0.003256	0.000897	-0.622803	0.453857	-0.261475	0.340375	-0.280015	0.002973	-0.897623
34935		4.859773	-1.920780	8.197918	0.002987	-0.004098	0.001852	-0.627930	0.441895	-0.251709	0.340658	-0.279856	0.002894	-0.897566
34936		4.852937	-1.909638	8.202185	0.001940	-0.001162	0.001552	-0.630127	0.452637	-0.256836	0.340386	-0.279840	0.002856	-0.897674
34937		4.851802	-1.924599	8.194618	0.001472	0.002225	0.003129	-0.624023	0.447754	-0.252930	0.340429	-0.279736	0.002852	-0.897690
34938		4.843904	-1.913832	8.199425	0.001471	0.002225	0.003129	-0.624268	0.449219	-0.259033	0.340448	-0.279660	0.002855	-0.897707
34939		4.831176	-1.924925	8.184965	0.000199	0.003447	0.006284	-0.629883	0.451172	-0.253418	0.340582	-0.279481	0.002856	-0.897712
34940		4.796164	-1.947732	8.184524	0.004750	-0.000303	0.000652	-0.624023	0.447266	-0.259521	0.340533	-0.279454	0.002815	-0.897739
34941		4.827831	-1.906077	8.201237	0.007715	-0.006241	-0.002656	-0.627686	0.449219	-0.254150	0.340545	-0.279345	0.002650	-0.897769
34942		4.847375	-1.920081	8.203443	0.001871	-0.005196	-0.000484	-0.623779	0.457031	-0.256836	0.340482	-0.279363	0.002608	-0.897787
34943		4.857988	-1.909767	8.194016	-0.000760	-0.002359	0.002995	-0.629150	0.454346	-0.254639	0.340766	-0.279314	0.002634	-0.897695
34944		4.837411	-1.916624	8.195493	-0.003036	-0.002572	0.004356	-0.622559	0.449707	-0.254883	0.340844	-0.279334	0.002690	-0.897659
34945		4.829851	-1.951293	8.200211	-0.000293	-0.003658	0.002874	-0.627197	0.463867	-0.247559	0.340934	-0.279309	0.002688	-0.897632
34946		4.854676	-1.909694	8.201143	-0.002656	-0.001392	0.002858	-0.622559	0.450684	-0.255127	0.341223	-0.279438	0.002819	-0.897482
34947		4.824738	-1.935443	8.191878	0.001091	-0.001043	0.003170	-0.625244	0.449951	-0.254639	0.341330	-0.279374	0.002815	-0.897461
34948		4.841031	-1.926879	8.198485	0.003390	0.001310	0.000975	-0.631592	0.452148	-0.260986	0.341343	-0.279294	0.002786	-0.897481
34949		4.822825	-1.916207	8.232352	0.008832	0.001420	-0.001950	-0.621094	0.450928	-0.252930	0.341316	-0.279127	0.002654	-0.897543
34950		4.853263	-1.897905	8.222149	0.008297	0.002861	-0.000956	-0.622803	0.450928	-0.259033	0.341419	-0.279026	0.002590	-0.897536
34951		4.839925	-1.898805	8.227853	0.001139	0.003239	0.001501	-0.627197	0.450684	-0.248779	0.341523	-0.278866	0.002583	-0.897546
34952		4.800651	-1.899603	8.207349	-0.007470	0.003232	0.005990	-0.631104	0.450928	-0.253662	0.341504	-0.278927	0.002736	-0.897534
34953		4.825841	-1.928619	8.205085	-0.016571	-0.001492	0.002530	-0.626953	0.455811	-0.263916	0.341374	-0.279020	0.002927	-0.897554
34954		4.807782	-1.917177	8.201410	-0.016352	-0.002168	0.003613	-0.625244	0.455322	-0.263916	0.341498	-0.278950	0.003090	-0.897528
34955		4.804760	-1.956419	8.197192	-0.009285	-0.004544	0.002863	-0.623779	0.453857	-0.251709	0.341646	-0.278870	0.003160	-0.897496
34956		4.826627	-1.928651	8.222039	-0.008615	-0.004183	0.001576	-0.629639	0.450195	-0.251465	0.341710	-0.278958	0.003276	-0.897444
34957		4.836293	-1.934911	8.204546	-0.005915	-0.002986	0.000134	-0.620605	0.449219	-0.258301	0.341585	-0.279041	0.003337	-0.897466
34958		4.806937	-1.907851	8.214024	-0.005471	-0.004339	0.002301	-0.622314	0.452637	-0.253906	0.341637	-0.278991	0.003374	-0.897462
34959		4.816392	-1.935084	8.224626	-0.009222	-0.006774	0.000531	-0.629395	0.450195	-0.255371	0.341685	-0.279064	0.003467	-0.897420
34960		4.846666	-1.898260	8.216138	-0.017660	-0.007263	0.004687	-0.622314	0.454102	-0.257324	0.341588	-0.279181	0.003639	-0.897420
34961		4.806514	-1.923555	8.198334	-0.019557	-0.004208	0.006007	-0.626709	0.447266	-0.244873	0.341706	-0.279216	0.003865	-0.897363
34962		4.813520	-1.953680	8.184686	-0.016213	-0.004790	0.004109	-0.627197	0.456299	-0.252441	0.341526	-0.279428	0.004069	-0.897365
34963		4.806123	-1.960487	8.180325	-0.005254	-0.005017	0.003379	-0.621338	0.460938	-0.257568	0.341603	-0.279499	0.004142	-0.897313
34964		4.821721	-1.929792	8.189842	-0.003336	-0.005929	0.001225	-0.621826	0.457275	-0.256104	0.341869	-0.279481	0.004186	-0.897217
34965		4.840888	-1.923063	8.219330	-0.010966	-0.002167	0.005264	-0.623291	0.451660	-0.260742	0.342056	-0.279469	0.004336	-0.897149
34966		4.789337	-1.971655	8.203513	-0.007219	-0.003907	0.004117	-0.630859	0.455322	-0.244629	0.342102	-0.279391	0.004389	-0.897156
34967		4.811115	-1.966444	8.200942	0.001977	-0.005535	0.000046	-0.623779	0.453613	-0.255859	0.342069	-0.279559	0.004379	-0.897116
34968		4.823310	-1.940222	8.199140	0.005724	-0.007275	-0.001101	-0.622803	0.467041	-0.253174	0.342123	-0.279536	0.004280	-0.897103
34969		4.836040	-1.952760	8.185822	0.000910	-0.002655	0.002041	-0.623291	0.463135	-0.261475	0.342483	-0.279541	0.004328	-0.896964
34970		4.806850	-1.953976	8.204085	0.004142	-0.005294	0.004136	-0.630859	0.448486	-0.258057	0.342796	-0.279441	0.004288	-0.896875
34971		4.808919	-1.938278	8.211353	0.006348	-0.007026	0.002189	-0.628174	0.451172	-0.254395	0.342693	-0.279407	0.004150	-0.896926
34972		4.825564	-1.944088	8.209605	0.004989	-0.005411	0.002517	-0.623291	0.450195	-0.251465	0.342674	-0.279405	0.004065	-0.896934
34973		4.809813	-1.951726	8.202884	0.004771	-0.002648	0.002893	-0.624268	0.456055	-0.257324	0.342682	-0.279392	0.004017	-0.896935
34974		4.793606	-1.950384	8.216034	0.006634	-0.007845	0.002397	-0.622314	0.452393	-0.255127	0.342815	-0.279365	0.003921	-0.896893
34975		4.817017	-1.951812	8.193440	0.008301	-0.010222	-0.000011	-0.629395	0.450439	-0.251221	0.342864	-0.279373	0.003789	-0.896872
34976		4.803053	-1.934440	8.213833	0.010304	-0.011530	0.000662	-0.622314	0.455078	-0.261475	0.342812	-0.279466	0.003619	-0.896864
34977		4.789677	-1.940641	8.206083	0.010484	-0.018522	-0.000342	-0.625000	0.447266	-0.253418	0.342938	-0.279479	0.003413	-0.896813
34978		4.788784	-1.927331	8.232453	0.008683	-0.022065	-0.002851	-0.631836	0.445801	-0.259766	0.342827	-0.279642	0.003200	-0.896805
34979		4.840351	-1.915410	8.217627	0.009172	-0.027734	-0.004479	-0.629150	0.451660	-0.256104	0.342626	-0.279806	0.002907	-0.896832
34980		4.839319	-1.941432	8.207776	0.003650	-0.023275	-0.001461	-0.625732	0.454346	-0.255371	0.342582	-0.279988	0.002747	-0.896793
34981		4.869853	-1.913047	8.222454	0.002819	-0.023102	-0.002132	-0.626709	0.451660	-0.256836	0.342616	-0.280169	0.002614	-0.896723
34982		4.848176	-1.910963	8.194235	-0.003716	-0.018044	0.002845	-0.630371	0.446289	-0.255615	0.342631	-0.280298	0.002576	-0.896677
34983		4.844553	-1.930950	8.204849	-0.003357	-0.016918	0.003636	-0.625732	0.448975	-0.254150	0.342513	-0.280431	0.002519	-0.896681
34984		4.843844	-1.938292	8.191239	-0.002710	-0.014219	0.000103	-0.628418	0.452148	-0.261719	0.342456	-0.280533	0.002479	-0.896671
34985		4.815317	-1.916907	8.211907	-0.004522	-0.015729	0.001344	-0.620361	0.447266	-0.249268	0.342471	-0.280579	0.002429	-0.896651
34986		4.849683	-1.901861	8.198410	-0.006887	-0.019973	0.000666	-0.627441	0.453857	-0.252930	0.342417	-0.280798	0.002439	-0.896603
34987		4.857147	-1.950788	8.187933	-0.008975	-0.018578	0.003159	-0.626709	0.451172	-0.261963	0.342439	-0.280998	0.002480	-0.896532
34988		4.846638	-1.931406	8.194141	-0.009437	-0.021703	0.004066	-0.629150	0.444092	-0.253418	0.342476	-0.281111	0.002464	-0.896483
34989		4.875275	-1.921537	8.200751	-0.011480	-0.018112	0.003443	-0.628906	0.447754	-0.255615	0.342299	-0.281292	0.002497	-0.896493
34990		4.822611	-1.947178	8.163571	-0.010832	-0.017805	0.004441	-0.626709	0.450195	-0.255859	0.342222	-0.281442	0.002528	-0.896475
34991		4.842430	-1.932789	8.186960	-0.010883	-0.022033	0.003805	-0.630127	0.451660	-0.253174	0.342212	-0.281629	0.002547	-0.896420
34992		4.870107	-1.961158	8.157873	-0.006821	-0.022395	-0.000272	-0.627441	0.459229	-0.246094	0.342137	-0.281845	0.002519	-0.896381
34993		4.880603	-1.934249	8.162366	-0.001864	-0.016618	-0.001586	-0.628418	0.452393	-0.250244	0.342180	-0.282059	0.002518	-0.896297
34994		4.886964	-1.919481	8.192003	-0.003261	-0.012777	0.001086	-0.633301	0.454346	-0.249268	0.342155	-0.282175	0.002511	-0.896271
34995		4.859386	-1.945654	8.181382	-0.006239	-0.013098	0.000043	-0.619385	0.450195	-0.250732	0.342075	-0.282336	0.002538	-0.896250
34996		4.862166	-1.946851	8.179446	-0.004186	-0.014604	0.002118	-0.625244	0.454346	-0.256348	0.342142	-0.282429	0.002535	-0.896195
34997		4.881865	-1.948396	8.163919	-0.004156	-0.012462	0.001292	-0.624756	0.445312	-0.251465	0.342227	-0.282458	0.002517	-0.896154
34998		4.872594	-1.935464	8.175499	0.002075	-0.010243	-0.000949	-0.638184	0.447021	-0.254395	0.342137	-0.282475	0.002427	-0.896183
34999		4.877254	-1.943669	8.178303	0.000264	-0.007330	-0.000482	-0.636719	0.445557	-0.246582	0.341936	-0.282480	0.002349	-0.896259
35000		4.871537	-1.932489	8.182097	0.003353	-0.007348	0.001098	-0.632812	0.447998	-0.255859	0.341707	-0.282555	0.002282	-0.896322
35001		4.873505	-1.940897	8.161314	0.001091	-0.007504	0.000183	-0.626465	0.451416	-0.255615	0.341626	-0.282525	0.002196	-0.896363
35002		4.873347	-1.946818	8.172797	0.001296	-0.005842	-0.000977	-0.632324	0.454346	-0.253662	0.341665	-0.282464	0.002129	-0.896367
35003		4.874596	-1.946536	8.172119	0.001460	-0.006379	0.000976	-0.633545	0.445801	-0.252197	0.341669	-0.282456	0.002086	-0.896369
35004		4.872078	-1.943678	8.179566	0.003307	-0.011519	-0.001830	-0.628662	0.453613	-0.251953	0.341507	-0.282504	0.001967	-0.896415
35005		4.884507	-1.941083	8.149431	0.004709	-0.008906	-0.001532	-0.628418	0.451660	-0.253662	0.341522	-0.282516	0.001879	-0.896406
35006		4.849440	-1.930336	8.172280	0.004913	-0.007244	-0.002692	-0.629395	0.453369	-0.250244	0.341519	-0.282486	0.001773	-0.896417
35007		4.865153	-1.912243	8.173829	0.003968	-0.011156	-0.003121	-0.621338	0.447510	-0.252930	0.341488	-0.282548	0.001688	-0.896410
35008		4.870474	-1.920240	8.176292	-0.001116	-0.012226	-0.000830	-0.626953	0.443359	-0.241699	0.341524	-0.282578	0.001627	-0.896386
35009		4.899728	-1.931069	8.180215	0.001611	-0.013313	-0.002336	-0.618408	0.447021	-0.259033	0.341322	-0.282742	0.001578	-0.896412
35010		4.889658	-1.932432	8.184098	0.001574	-0.011086	0.000001	-0.630127	0.445557	-0.256836	0.341484	-0.282669	0.001451	-0.896373
35011		4.880548	-1.928036	8.175968	-0.000837	-0.008676	0.000887	-0.623535	0.458008	-0.255859	0.341432	-0.282639	0.001381	-0.896403
35012		4.875761	-1.925985	8.159421	0.000630	-0.010573	-0.001203	-0.619141	0.450439	-0.257568	0.341618	-0.282636	0.001321	-0.896333
35013		4.878930	-1.911054	8.165891	-0.001156	-0.009999	0.001506	-0.621826	0.450195	-0.247314	0.341792	-0.282590	0.001262	-0.896281
35014		4.868524	-1.943067	8.178260	-0.002100	-0.009486	0.000303	-0.622070	0.453125	-0.246094	0.341820	-0.282661	0.001269	-0.896248
35015		4.887563	-1.943988	8.163167	-0.001529	-0.011124	0.000711	-0.631592	0.454834	-0.253418	0.341890	-0.282765	0.001275	-0.896188
35016		4.885174	-1.941604	8.170447	0.002031	-0.007960	-0.000908	-0.626709	0.446533	-0.251709	0.341911	-0.282770	0.001216	-0.896179
35017		4.906374	-1.920314	8.151315	0.002860	-0.008134	-0.000246	-0.627686	0.446533	-0.246094	0.341860	-0.282762	0.001141	-0.896201
35018		4.907618	-1.919756	8.150697	0.003033	-0.004245	0.000933	-0.624023	0.450684	-0.245850	0.341770	-0.282773	0.001115	-0.896232
35019		4.893425	-1.919113	8.188039	-0.001670	0.000236	0.003251	-0.631104	0.453613	-0.251709	0.341802	-0.282752	0.001178	-0.896226
35020		4.885006	-1.923922	8.184861	-0.000668	-0.000418	0.003579	-0.626709	0.458740	-0.251953	0.341836	-0.282699	0.001205	-0.896230
35021		4.883419	-1.939427	8.177304	0.000281	0.003494	0.004007	-0.629150	0.444824	-0.251953	0.342012	-0.282593	0.001249	-0.896196
35022		4.884915	-1.918383	8.173403	0.002749	0.005311	0.003757	-0.634521	0.447510	-0.251709	0.341946	-0.282440	0.001245	-0.896269
35023		4.861592	-1.931055	8.188307	-0.002247	0.001818	0.005130	-0.634277	0.445312	-0.250244	0.341849	-0.282373	0.001296	-0.896328
35024		4.818905	-1.937985	8.156449	-0.002561	-0.003817	0.001948	-0.627930	0.450928	-0.252441	0.341673	-0.282381	0.001319	-0.896392
35025		4.847954	-1.926021	8.188349	-0.002717	-0.014414	0.001492	-0.635498	0.454102	-0.248779	0.341676	-0.282478	0.001296	-0.896361
35026		4.872531	-1.938921	8.144130	-0.006254	-0.015491	0.004575	-0.621338	0.447266	-0.249756	0.341608	-0.282663	0.001352	-0.896328
35027		4.898889	-1.933708	8.163650	-0.000885	-0.015186	0.000191	-0.625977	0.450195	-0.248047	0.341626	-0.282759	0.001299	-0.896291
35028		4.880749	-1.940155	8.164125	-0.002748	-0.012131	0.001540	-0.630371	0.447754	-0.249268	0.341612	-0.282861	0.001306	-0.896264
35029		4.885633	-1.911347	8.177730	-0.006427	-0.014955	0.002621	-0.632568	0.456543	-0.251221	0.341518	-0.283005	0.001335	-0.896255
35030		4.882581	-1.940738	8.168199	-0.007643	-0.020330	0.001934	-0.628418	0.453369	-0.256592	0.341511	-0.283213	0.001364	-0.896192
35031		4.902076	-1.957770	8.144075	-0.005859	-0.016536	0.000737	-0.621582	0.443359	-0.251953	0.341569	-0.283298	0.001340	-0.896142
35032		4.909703	-1.937242	8.161614	-0.001515	-0.009038	0.002169	-0.635742	0.449707	-0.250488	0.341585	-0.283289	0.001300	-0.896139
35033		4.895424	-1.922054	8.182192	0.001614	-0.006916	0.002915	-0.631592	0.447510	-0.248047	0.341494	-0.283305	0.001274	-0.896168
35034		4.887419	-1.941487	8.170446	-0.001914	-0.007880	0.001427	-0.625244	0.457275	-0.251221	0.341381	-0.283356	0.001284	-0.896196
35035		4.896868	-1.908198	8.164242	-0.001427	-0.007094	0.002759	-0.632568	0.451416	-0.254639	0.341520	-0.283366	0.001295	-0.896140
35036		4.907931	-1.928662	8.162491	-0.004492	-0.005046	0.004945	-0.629395	0.455811	-0.253662	0.341535	-0.283341	0.001329	-0.896142
35037		4.906955	-1.936426	8.174083	-0.004800	-0.001944	0.004794	-0.623779	0.453857	-0.256592	0.341630	-0.283291	0.001392	-0.896121
35038		4.874071	-1.954279	8.161265	-0.002965	-0.002716	0.003493	-0.633057	0.445312	-0.246826	0.341793	-0.283199	0.001401	-0.896088
35039		4.885137	-1.921069	8.179334	-0.001793	-0.003851	0.003483	-0.636719	0.447754	-0.255859	0.341642	-0.283215	0.001438	-0.896141
35040		4.888854	-1.939435	8.162548	-0.002571	-0.003932	0.006522	-0.633301	0.453857	-0.249023	0.341591	-0.283163	0.001452	-0.896176
35041		4.879200	-1.942212	8.191180	-0.002193	-0.002750	0.005029	-0.633789	0.446533	-0.247314	0.341571	-0.283164	0.001513	-0.896184
35042		4.863600	-1.959958	8.164443	-0.000393	-0.005607	0.002261	-0.634521	0.454834	-0.249268	0.341423	-0.283192	0.001525	-0.896231
35043		4.878650	-1.942702	8.166147	0.005769	-0.007620	-0.000647	-0.626465	0.453613	-0.251221	0.341357	-0.283214	0.001462	-0.896250
35044		4.905040	-1.908504	8.146431	0.002329	-0.006696	0.000746	-0.621826	0.449707	-0.245117	0.341413	-0.283201	0.001420	-0.896232
35045		4.890634	-1.922502	8.175712	0.001532	-0.004436	0.001551	-0.631592	0.455811	-0.251953	0.341436	-0.283205	0.001421	-0.896222
35046		4.890497	-1.937829	8.167277	-0.002434	-0.006439	0.002432	-0.628418	0.453857	-0.254883	0.341452	-0.283219	0.001448	-0.896212
35047		4.874758	-1.917002	8.152022	-0.000339	-0.005805	0.003673	-0.629395	0.450928	-0.250732	0.341543	-0.283180	0.001431	-0.896189
35048		4.897787	-1.926913	8.165048	-0.005894	-0.003231	0.003879	-0.635986	0.448242	-0.249756	0.341532	-0.283171	0.001507	-0.896196
35049		4.855478	-1.955094	8.161233	-0.003173	-0.004320	0.002363	-0.625977	0.456543	-0.251709	0.341395	-0.283181	0.001550	-0.896245
35050		4.889530	-1.939087	8.172898	0.001040	-0.005279	0.002504	-0.624023	0.454346	-0.252441	0.341497	-0.283158	0.001540	-0.896214
35051		4.873849	-1.947352	8.166201	0.001644	-0.004776	0.002088	-0.632812	0.445801	-0.245361	0.341608	-0.283112	0.001511	-0.896186
35052		4.884617	-1.936325	8.156574	0.004971	-0.005304	-0.002133	-0.638916	0.453613	-0.255615	0.341422	-0.283127	0.001460	-0.896252
35053		4.880219	-1.939040	8.176770	0.004762	-0.006966	-0.000976	-0.640381	0.452637	-0.240967	0.341345	-0.283097	0.001375	-0.896291
35054		4.883283	-1.931977	8.163749	0.002174	-0.008442	-0.001262	-0.636719	0.448486	-0.255859	0.341078	-0.283225	0.001404	-0.896352
35055		4.887831	-1.940162	8.166603	0.001285	-0.008183	0.001239	-0.630859	0.456787	-0.246582	0.341018	-0.283208	0.001339	-0.896381
35056		4.915630	-1.921394	8.162709	0.000662	-0.006346	-0.000578	-0.638428	0.448730	-0.255127	0.340952	-0.283254	0.001366	-0.896391
35057		4.892627	-1.910378	8.180574	-0.002512	-0.004014	0.003361	-0.628418	0.453613	-0.244873	0.340879	-0.283216	0.001377	-0.896431
35058		4.886452	-1.938990	8.173058	-0.002418	-0.002070	0.003953	-0.630615	0.450684	-0.247803	0.340844	-0.283230	0.001471	-0.896440
35059		4.867640	-1.939105	8.162669	0.001038	-0.005221	0.000215	-0.627197	0.448730	-0.250977	0.340770	-0.283240	0.001472	-0.896464
35060		4.881323	-1.936738	8.156741	0.003361	-0.005152	-0.002043	-0.631592	0.445557	-0.239258	0.340757	-0.283201	0.001404	-0.896482
35061		4.907232	-1.923547	8.165514	0.002965	-0.004051	-0.000496	-0.627686	0.444092	-0.245117	0.340541	-0.283255	0.001428	-0.896547
35062		4.841214	-1.946959	8.160836	0.005496	-0.002434	0.000662	-0.631104	0.449707	-0.257080	0.340470	-0.283220	0.001381	-0.896585
35063		4.879213	-1.892559	8.176090	0.009403	-0.006885	-0.003211	-0.631836	0.450195	-0.251465	0.340499	-0.283135	0.001203	-0.896601
35064		4.892109	-1.925108	8.190726	0.003869	-0.006650	-0.000765	-0.625732	0.452637	-0.250977	0.340451	-0.283121	0.001143	-0.896624
35065		4.872555	-1.909624	8.164093	0.000716	-0.006544	0.000835	-0.628174	0.452393	-0.252686	0.340497	-0.283116	0.001126	-0.896608
35066		4.891055	-1.930866	8.177589	0.002621	-0.009798	0.000889	-0.622314	0.447754	-0.255127	0.340537	-0.283129	0.001066	-0.896589
35067		4.888825	-1.937079	8.165046	0.001394	-0.008521	0.001776	-0.631348	0.452881	-0.256348	0.340676	-0.283094	0.000982	-0.896547
35068		4.888505	-1.913419	8.168211	0.001036	-0.005221	0.000215	-0.628662	0.440430	-0.255127	0.340706	-0.283041	0.000941	-0.896553
35069		4.884104	-1.925801	8.168390	0.000865	-0.004685	-0.001736	-0.631104	0.444824	-0.254395	0.340670	-0.282967	0.000860	-0.896590
35070		4.868467	-1.924810	8.181678	0.002261	-0.006498	-0.000673	-0.627441	0.450684	-0.250732	0.340630	-0.282926	0.000786	-0.896618
35071		4.892438	-1.912020	8.166184	0.002503	-0.009403	-0.001938	-0.629883	0.447510	-0.252686	0.340615	-0.282950	0.000729	-0.896616
35072		4.900962	-1.913520	8.180650	0.002980	-0.006390	0.001734	-0.633789	0.453125	-0.256104	0.340616	-0.282922	0.000675	-0.896625
35073		4.906105	-1.916197	8.171567	-0.003512	-0.003357	0.003042	-0.634033	0.443604	-0.249268	0.340628	-0.282877	0.000714	-0.896634
35074		4.866507	-1.952266	8.171955	-0.000757	-0.002306	0.000700	-0.628906	0.457031	-0.250244	0.340485	-0.282848	0.000737	-0.896697
35075		4.882101	-1.920254	8.181647	0.002960	-0.004051	-0.000500	-0.635986	0.445068	-0.248047	0.340493	-0.282828	0.000730	-0.896701
35076		4.884069	-1.913763	8.169115	0.000623	-0.001836	0.001816	-0.629883	0.446045	-0.245850	0.340338	-0.282804	0.000760	-0.896767
35077		4.891414	-1.924571	8.164304	0.001945	-0.001169	0.001519	-0.622559	0.455811	-0.253906	0.340242	-0.282775	0.000784	-0.896813
35078		4.884474	-1.942980	8.177475	0.004137	0.001465	0.001060	-0.629883	0.448486	-0.253906	0.340392	-0.282647	0.000752	-0.896796
35079		4.913749	-1.917118	8.186695	0.006412	0.008270	0.003534	-0.628906	0.446045	-0.246094	0.340442	-0.282436	0.000728	-0.896844
35080		4.911306	-1.916237	8.188367	0.007701	0.013447	0.005631	-0.625488	0.445557	-0.251953	0.340419	-0.282219	0.000765	-0.896921
35081		4.907200	-1.915654	8.190965	0.006576	0.023321	0.008681	-0.631592	0.457275	-0.253174	0.340539	-0.281846	0.000820	-0.896992
35082		4.858425	-1.912574	8.183027	0.006988	0.026532	0.010936	-0.633789	0.457520	-0.252930	0.340657	-0.281462	0.000939	-0.897068
35083		4.789788	-1.953114	8.165630	0.011959	0.019051	0.004172	-0.629883	0.449951	-0.258301	0.340670	-0.281151	0.000959	-0.897161
35084		4.830498	-1.928937	8.207454	0.021616	0.013677	-0.001069	-0.628906	0.448486	-0.260986	0.340738	-0.280803	0.000764	-0.897244
35085		4.854380	-1.897538	8.226561	0.016514	0.008248	-0.000273	-0.627441	0.451172	-0.258789	0.340829	-0.280517	0.000587	-0.897299
35086		4.864134	-1.879513	8.206277	0.001508	0.004448	0.005456	-0.631348	0.450195	-0.255859	0.340928	-0.280361	0.000607	-0.897310
35087		4.849058	-1.897883	8.204388	-0.008834	0.005149	0.008180	-0.626953	0.448975	-0.260986	0.340926	-0.280271	0.000781	-0.897339
35088		4.882001	-1.855762	8.263224	-0.047155	-0.000699	0.013028	-0.618408	0.449219	-0.256348	0.340954	-0.280361	0.001332	-0.897300
35089		4.906816	-1.892849	8.189914	-0.068735	0.002997	0.024707	-0.633301	0.455811	-0.255859	0.341094	-0.280519	0.002189	-0.897195
35090		4.823209	-1.970898	8.209261	-0.058797	0.014415	0.026607	-0.621094	0.454590	-0.254150	0.341123	-0.280542	0.003038	-0.897175
35091		4.909900	-1.949144	8.222579	-0.055451	0.022737	0.020844	-0.629150	0.442871	-0.255127	0.341221	-0.280444	0.003842	-0.897165
35092		4.646111	-2.125979	8.115995	-0.039975	0.034408	0.007497	-0.625000	0.451660	-0.250244	0.341065	-0.280134	0.004458	-0.897318
35093		4.592419	-2.293049	8.048625	0.050824	0.000236	-0.038058	-0.625000	0.450195	-0.254395	0.340754	-0.279868	0.003794	-0.897522
35094		4.925429	-1.807997	8.237036	0.059246	-0.006321	-0.035615	-0.625977	0.447998	-0.255615	0.340539	-0.279612	0.002996	-0.897687
35095		4.717510	-1.922649	8.233743	0.034092	-0.010481	-0.017876	-0.620117	0.446533	-0.255371	0.340429	-0.279504	0.002519	-0.897764
35096		4.540048	-2.127998	8.099161	0.085330	-0.045492	-0.049753	-0.627441	0.449463	-0.253174	0.340208	-0.279563	0.001193	-0.897832
35097		4.982324	-1.661920	8.207581	0.115702	-0.036753	-0.073658	-0.624756	0.443848	-0.259033	0.339732	-0.279431	-0.000476	-0.898053
35098		4.780327	-1.779041	8.135129	0.098655	0.009747	-0.085472	-0.625244	0.443359	-0.259766	0.339148	-0.278799	-0.001848	-0.898469
35099		4.671073	-1.628529	8.255628	0.134226	0.009792	-0.113203	-0.629150	0.440430	-0.259277	0.338380	-0.278021	-0.003708	-0.898994
35100		4.725736	-1.684297	8.288694	0.113078	-0.023462	-0.099431	-0.630859	0.441406	-0.257080	0.337627	-0.277727	-0.005404	-0.899359
35101		4.690752	-1.891592	8.064493	0.128335	-0.043263	-0.105519	-0.635498	0.432861	-0.265869	0.336838	-0.277619	-0.007351	-0.899674
35102		4.860346	-1.929586	8.118250	0.139891	0.021964	-0.124619	-0.640869	0.434814	-0.274414	0.335884	-0.276661	-0.009267	-0.900308
35103		4.544560	-1.558934	8.199691	0.101943	0.045411	-0.143331	-0.638672	0.424072	-0.272949	0.334635	-0.275564	-0.010739	-0.901093
35104		4.594037	-2.248630	8.253670	0.124459	0.028310	-0.227964	-0.642090	0.421387	-0.274658	0.332459	-0.274557	-0.012829	-0.902178
35105		5.175204	-1.357174	8.242704	0.108407	0.067062	-0.230934	-0.642334	0.412354	-0.282227	0.330189	-0.273183	-0.014573	-0.903401
35106		4.767768	-1.513950	8.309499	0.076836	0.076713	-0.187344	-0.656738	0.417480	-0.279785	0.328346	-0.271786	-0.015811	-0.904473
35107		4.411557	-1.269949	8.709408	0.069040	-0.089545	-0.207061	-0.654785	0.405762	-0.286377	0.326075	-0.272371	-0.017643	-0.905085
35108		4.213426	-1.447766	8.832951	0.010322	-0.332391	-0.224765	-0.663818	0.408936	-0.276367	0.323427	-0.275857	-0.019920	-0.904932
35109		3.345291	-1.821728	9.830898	-0.129522	-0.882109	-0.330703	-0.678711	0.393066	-0.255859	0.318878	-0.286134	-0.023149	-0.903276
35110		3.500666	-0.924117	11.061860	-0.237762	-1.975310	-0.363352	-0.708984	0.401367	-0.220703	0.312947	-0.309087	-0.029584	-0.897582
35111		2.880076	-0.899264	11.501734	-0.263453	-3.683617	-0.236261	-0.739746	0.395264	-0.155029	0.307237	-0.350951	-0.041806	-0.883567
35112		4.384070	-3.034041	9.593484	-0.049268	-5.007460	-0.347826	-0.790039	0.388672	-0.053955	0.299728	-0.405451	-0.061817	-0.861366
35113		10.489690	-1.844312	8.922616	-0.319690	-4.933715	-0.544260	-0.815186	0.378662	0.043457	0.287810	-0.458437	-0.079391	-0.837077
35114		17.751579	1.618288	5.103530	-1.021047	-3.141015	-0.388755	-0.829102	0.376221	0.110352	0.274486	-0.494090	-0.082070	-0.820851
35115		14.740290	-0.723080	0.102910	-1.397560	0.244160	-0.292357	-0.820312	0.368652	0.130615	0.263037	-0.495915	-0.068638	-0.824724
35116		7.384128	-0.738674	-0.875164	-0.113196	1.758896	-0.377967	-0.824951	0.355713	0.092529	0.259871	-0.477632	-0.064003	-0.836802
35117		-0.005784	1.286013	-5.094342	-0.186229	1.510136	-0.186570	-0.818115	0.360596	0.061523	0.257964	-0.462138	-0.058259	-0.846457
35118		1.178909	-1.614428	-5.687711	-1.137627	0.090737	-0.055759	-0.815430	0.356689	0.081543	0.250847	-0.464699	-0.046274	-0.847932
35119		2.447027	-2.048148	-3.713223	-0.814780	-0.508833	0.755416	-0.812988	0.382568	0.109375	0.253804	-0.472978	-0.034874	-0.843006
35120		2.143734	-1.920562	-0.048280	-0.511011	-0.866404	1.014702	-0.802246	0.391357	0.123047	0.261064	-0.484050	-0.026267	-0.834776
35121		30.701000	1.171123	15.956017	1.358776	3.938819	1.081266	-0.785156	0.420410	0.039307	0.281477	-0.438147	-0.021039	-0.853437
35122		5.043692	-6.043013	11.328015	0.245582	5.286545	1.163245	-0.737549	0.436279	-0.063965	0.296007	-0.380202	0.001252	-0.876256
35123		8.112121	-6.852662	5.122607	0.985960	5.313202	0.668534	-0.678955	0.441406	-0.168213	0.307256	-0.317473	0.013227	-0.897011
35124		-6.585626	-1.536189	17.918975	1.266818	3.896524	0.094514	-0.646729	0.433594	-0.243652	0.312300	-0.268467	0.014316	-0.911147
35125		-7.375939	-3.673038	12.667571	-0.117794	-1.187833	-0.620720	-0.675781	0.429688	-0.228516	0.304974	-0.282458	0.008954	-0.909466
35126		14.505831	2.092616	3.127695	0.459108	-0.518788	-0.690139	-0.686279	0.408203	-0.230225	0.298713	-0.286565	-0.000608	-0.910302
35127		4.892043	-2.413227	8.057562	0.105422	0.914925	-0.003284	-0.666992	0.411621	-0.245117	0.299013	-0.275669	0.001611	-0.913562
35128		0.775610	-2.033762	10.440242	0.280797	-0.046279	-0.375195	-0.678711	0.393799	-0.250488	0.295662	-0.275078	-0.003044	-0.914826
35129		7.303726	0.497179	7.531773	0.009781	-0.206769	-0.091186	-0.688232	0.398438	-0.248779	0.294599	-0.277319	-0.004198	-0.914488
35130		3.040184	-2.803083	9.182264	-0.227690	-0.319456	0.044669	-0.679443	0.399658	-0.236084	0.294271	-0.281732	-0.002601	-0.913250
35131		3.745645	-1.378085	9.373518	-0.215933	-0.904675	-0.193384	-0.709229	0.402100	-0.217285	0.291214	-0.292747	-0.004116	-0.910756
35132		3.064871	-2.171468	10.840331	-0.336166	-1.922066	-0.204357	-0.726318	0.391602	-0.184814	0.287430	-0.315670	-0.007999	-0.904252
35133		2.057590	-2.354963	12.226016	-0.140864	-3.928879	-0.294560	-0.762451	0.393799	-0.103027	0.282752	-0.360066	-0.021618	-0.888783
35134		4.042335	-3.523662	9.948997	0.130540	-5.495044	-0.488466	-0.810059	0.376709	-0.004395	0.275706	-0.419525	-0.044544	-0.863713
35135		11.005209	-2.038276	9.041323	-0.109007	-5.460353	-0.736489	-0.835693	0.368164	0.107178	0.263442	-0.477306	-0.065823	-0.835730
35136		22.243937	2.487085	6.064002	-0.821665	-3.174468	-0.442563	-0.833008	0.361816	0.173096	0.251034	-0.512298	-0.070172	-0.818296
35137		16.651875	-3.326246	0.310846	-1.002189	0.852808	0.038203	-0.832275	0.358887	0.166748	0.245697	-0.506600	-0.056949	-0.824468
35138		4.456133	-0.387679	-1.003391	0.668786	2.502251	0.050861	-0.824707	0.355469	0.108887	0.252088	-0.478458	-0.055781	-0.839296
35139		-3.531884	2.659879	-5.710649	0.245604	1.513863	-0.187803	-0.815918	0.359131	0.073486	0.252580	-0.461512	-0.054687	-0.848658
35140		-0.550490	-2.727629	-4.894801	-0.769720	-0.450459	-0.249483	-0.822021	0.354492	0.085693	0.245162	-0.468453	-0.049387	-0.847354
35141		-0.102560	-1.809929	-3.328747	-0.034295	-1.130606	0.285533	-0.817383	0.364502	0.117188	0.247253	-0.480598	-0.050811	-0.839827
35142		-0.429342	2.069499	-1.839296	0.188634	-1.923328	0.267069	-0.835938	0.364990	0.155029	0.249885	-0.500172	-0.057110	-0.827118
35143		36.419568	-2.434097	12.720755	0.522787	0.454371	0.386518	-0.844482	0.375488	0.135986	0.257459	-0.494038	-0.058687	-0.828370
35144		14.073312	2.585413	3.640032	-0.436390	5.611453	2.017013	-0.790283	0.407959	0.039551	0.278602	-0.437456	-0.023338	-0.854674
35145		2.887865	-4.070290	9.669255	-0.043240	5.024853	1.587610	-0.734863	0.438965	-0.058350	0.296221	-0.383449	0.003241	-0.874763
35146		7.628259	-7.536356	3.805998	0.928989	5.853323	1.141057	-0.675537	0.458984	-0.164307	0.312082	-0.314893	0.020140	-0.896126
35147		-15.507037	-3.544792	22.919140	1.127123	2.931185	-0.588316	-0.657715	0.432861	-0.233398	0.308956	-0.277531	0.016580	-0.909532
35148		2.665546	-2.139092	10.636860	-0.319846	-2.165411	-0.700531	-0.688477	0.428467	-0.193115	0.300151	-0.303324	0.009467	-0.904331
35149		12.080523	-0.940137	2.258108	-0.072324	-1.007775	-0.463024	-0.704346	0.420410	-0.183838	0.294673	-0.314919	0.004807	-0.902203
35150		6.173693	-3.180325	6.773426	0.505221	0.544203	-0.514042	-0.713867	0.404541	-0.192139	0.290777	-0.306856	-0.000884	-0.906249
35151		1.936108	-1.330629	11.684023	0.287992	-0.425960	-0.339892	-0.716064	0.395996	-0.180420	0.287980	-0.310546	-0.006968	-0.905859
35152		3.293183	-1.364562	11.054575	0.090703	-2.064513	-0.420343	-0.742676	0.392578	-0.159912	0.283247	-0.333367	-0.017012	-0.899082
35153		4.508145	-0.111130	9.911655	-0.009538	-3.306628	-0.316375	-0.773682	0.385254	-0.087402	0.278656	-0.370108	-0.029857	-0.885708
35154		4.990304	-1.700889	9.096665	0.031289	-4.237328	-0.174468	-0.800049	0.374268	-0.015381	0.274849	-0.416218	-0.045664	-0.865526
35155		6.853865	-3.545621	7.693602	0.139734	-4.706911	-0.409736	-0.832764	0.373047	0.080811	0.267935	-0.465583	-0.065320	-0.840938
35156		12.958966	-3.578624	7.392281	0.085765	-4.539602	-0.730480	-0.849609	0.361084	0.171143	0.256568	-0.511535	-0.085473	-0.815597
35157		17.405592	-1.081228	4.055853	-0.549009	-2.778024	-0.477791	-0.852783	0.343750	0.228516	0.244572	-0.540735	-0.091380	-0.799650
35158		20.020334	-3.317552	0.624160	-0.676309	0.751542	0.076014	-0.846191	0.340820	0.210449	0.241115	-0.535297	-0.081419	-0.805414
35159		7.998442	-3.422588	-1.643900	0.697618	3.300083	1.347582	-0.816650	0.373779	0.128662	0.261985	-0.500762	-0.069072	-0.822089
35160		-5.036768	1.248635	-3.281458	0.206667	2.528853	1.531747	-0.779785	0.403320	0.077148	0.280987	-0.475012	-0.053232	-0.832211
35161		-6.354583	2.773411	-2.250628	-0.361259	0.342498	-0.147844	-0.778809	0.406494	0.085205	0.277495	-0.472539	-0.049099	-0.835040
35162		0.261418	2.135790	0.842406	-0.455302	-0.072842	-1.152028	-0.795654	0.383301	0.088379	0.262673	-0.474043	-0.051354	-0.838838
35163		-5.007599	2.359372	-6.722642	-0.841741	-1.404640	-1.124942	-0.830322	0.363770	0.131592	0.244885	-0.490595	-0.053757	-0.834541
35164		38.861167	-7.076898	9.303744	-0.602667	-1.346862	-0.467205	-0.856445	0.356201	0.162354	0.235350	-0.506018	-0.054434	-0.828005
35165		21.486860	12.305342	-0.192837	-0.377094	6.455246	2.109747	-0.812744	0.390869	0.048096	0.257955	-0.439955	-0.017866	-0.859988
35166		-1.869436	-10.266106	14.976411	-0.661010	5.241512	1.969440	-0.760742	0.435059	-0.043701	0.276069	-0.385116	0.016861	-0.880447
35167		6.555968	-9.466265	5.763589	1.073242	4.493996	0.600177	-0.714111	0.431396	-0.146240	0.286432	-0.331158	0.023372	-0.898746
35168		-2.783552	-6.065589	12.319972	2.073333	3.965046	-1.042367	-0.695312	0.398193	-0.244141	0.281664	-0.278926	0.009923	-0.918024
35169		-3.168781	4.167190	15.387733	0.600401	-0.216976	-0.687238	-0.703613	0.378174	-0.235352	0.275830	-0.279297	-0.000088	-0.919734
35170		8.765513	-0.382142	5.685997	-0.103087	-0.872549	-0.042222	-0.714111	0.380859	-0.229980	0.274918	-0.289582	-0.002020	-0.916820
35171		7.398261	-1.550095	6.608613	0.028856	0.190849	0.047657	-0.725342	0.381836	-0.225586	0.275539	-0.287219	-0.001502	-0.917378
35172		4.156257	-0.349953	9.176437	-0.047852	0.287576	0.181922	-0.701904	0.377197	-0.233398	0.277428	-0.284015	0.000703	-0.917807
35173		3.785643	-1.517174	8.983912	-0.269457	-0.179163	0.237574	-0.705566	0.387939	-0.220459	0.279168	-0.286926	0.004027	-0.916364
35174		4.976702	-2.323599	7.966999	-0.250179	-0.333735	0.161675	-0.707031	0.394043	-0.219727	0.280106	-0.291533	0.006322	-0.914609
35175		5.734674	-1.907836	7.526080	-0.098574	-0.180393	0.092689	-0.706055	0.400879	-0.219482	0.280787	-0.293855	0.007173	-0.913650
35176		5.428858	-2.113807	7.624086	-0.024709	-0.024098	0.103333	-0.710938	0.402588	-0.214600	0.281848	-0.294133	0.007767	-0.913229
35177		4.975065	-2.491178	7.881455	0.092979	0.070955	-0.000670	-0.705322	0.397705	-0.211426	0.282143	-0.292920	0.006970	-0.913534
35178		5.139318	-1.625814	8.052053	0.153544	0.094757	-0.063571	-0.704346	0.403564	-0.214844	0.281936	-0.291226	0.005338	-0.914150
35179		5.154898	-1.154603	8.130601	0.106403	0.100533	-0.024065	-0.705811	0.391846	-0.225098	0.282008	-0.289628	0.004409	-0.914641
35180		5.016131	-1.622770	8.127766	0.043900	0.094799	0.012888	-0.699707	0.393799	-0.224609	0.282277	-0.288313	0.004306	-0.914974
35181		4.943461	-1.979491	8.145223	0.049963	0.077760	-0.011385	-0.699219	0.399170	-0.229736	0.282291	-0.287173	0.003985	-0.915329
35182		5.008579	-1.894725	8.127714	0.073159	0.056025	-0.037256	-0.697998	0.395752	-0.234375	0.282091	-0.286200	0.003231	-0.915698
35183		5.061389	-1.618359	8.164989	0.071529	0.035945	-0.040246	-0.704834	0.393066	-0.240723	0.281851	-0.285462	0.002416	-0.916005
35184		5.004453	-1.575578	8.237111	0.050343	0.000082	-0.029538	-0.705322	0.390869	-0.234375	0.281658	-0.285208	0.001755	-0.916145
35185		5.103639	-1.467590	8.145940	0.021675	-0.020763	-0.012957	-0.698242	0.385986	-0.237061	0.281554	-0.285294	0.001407	-0.916151
35186		5.051973	-1.578173	8.125609	0.000387	-0.016455	0.002940	-0.702148	0.385498	-0.236328	0.281557	-0.285405	0.001374	-0.916116
35187		5.070751	-1.526911	8.122298	-0.008436	-0.010145	0.007924	-0.692627	0.394287	-0.230957	0.281585	-0.285475	0.001482	-0.916085
35188		5.099336	-1.640247	8.100693	-0.007283	0.003027	0.011301	-0.700439	0.394531	-0.232178	0.281657	-0.285390	0.001634	-0.916089
35189		5.111778	-1.727044	8.103201	-0.000955	0.021226	0.015060	-0.698242	0.391846	-0.238525	0.281793	-0.285075	0.001792	-0.916145
35190		5.097175	-1.674874	8.105003	0.013102	0.041807	0.015543	-0.700439	0.395752	-0.236084	0.281984	-0.284473	0.001864	-0.916273
35191		5.018183	-1.658887	8.140240	0.017048	0.049840	0.016590	-0.705078	0.392822	-0.229980	0.282202	-0.283767	0.001921	-0.916425
35192		4.970721	-1.595657	8.203399	-0.001242	0.034162	0.022266	-0.694580	0.396973	-0.237305	0.282419	-0.283305	0.002153	-0.916501
35193		4.952909	-1.547038	8.211932	-0.023898	0.013700	0.030907	-0.694580	0.392822	-0.240234	0.282656	-0.283155	0.002603	-0.916473
35194		4.987982	-1.663446	8.161539	-0.029788	-0.003327	0.031199	-0.692139	0.394531	-0.231934	0.282876	-0.283221	0.003062	-0.916383
35195		5.007798	-1.658686	8.145667	-0.030133	-0.000460	0.032535	-0.695557	0.389893	-0.235840	0.283110	-0.283256	0.003539	-0.916298
35196		4.982016	-1.761789	8.138192	-0.025910	0.000423	0.025058	-0.698975	0.397461	-0.231201	0.283271	-0.283265	0.003945	-0.916244
35197		4.980695	-1.702162	8.158532	-0.010541	0.001262	0.014045	-0.693115	0.405029	-0.236084	0.283363	-0.283212	0.004139	-0.916231
35198		5.007833	-1.641871	8.171874	-0.009197	0.001753	0.011971	-0.698975	0.394531	-0.229492	0.283436	-0.283148	0.004312	-0.916227
35199		5.006577	-1.681735	8.167279	-0.012677	0.004265	0.009933	-0.693604	0.396729	-0.242920	0.283471	-0.283068	0.004526	-0.916240
35200		4.964818	-1.722826	8.175602	-0.010308	0.002210	0.007534	-0.698242	0.399414	-0.238037	0.283486	-0.283001	0.004700	-0.916255
35201		5.000941	-1.686345	8.175364	-0.007384	-0.003025	0.007551	-0.692383	0.399170	-0.235352	0.283514	-0.282985	0.004820	-0.916251
35202		5.031160	-1.735484	8.110429	-0.004179	0.002589	0.002846	-0.697998	0.400635	-0.235107	0.283500	-0.282894	0.004906	-0.916283
35203		5.040663	-1.673452	8.139255	0.005073	0.015252	0.001641	-0.702881	0.393311	-0.228027	0.283503	-0.282626	0.004927	-0.916365
35204		4.975844	-1.667848	8.165233	0.000702	0.022152	0.002901	-0.693115	0.395752	-0.228516	0.283502	-0.282296	0.005026	-0.916466
35205		4.955353	-1.670954	8.181301	-0.008387	0.013266	0.007717	-0.699707	0.393311	-0.238525	0.283528	-0.282099	0.005213	-0.916518
35206		4.961536	-1.655227	8.192854	-0.017966	-0.002433	0.010662	-0.698975	0.396240	-0.236572	0.283550	-0.282111	0.005470	-0.916506
35207		5.011033	-1.677558	8.153343	-0.022506	-0.002759	0.016140	-0.703125	0.397217	-0.233398	0.283622	-0.282145	0.005796	-0.916471
35208		4.993438	-1.765871	8.137379	-0.019410	0.009251	0.014616	-0.690430	0.390137	-0.233154	0.283686	-0.282031	0.006121	-0.916484
35209		4.942286	-1.761798	8.155962	-0.009318	0.009807	0.010770	-0.692871	0.398682	-0.240479	0.283742	-0.281874	0.006321	-0.916514
35210		4.939523	-1.712388	8.201416	-0.007619	-0.000650	0.005312	-0.692627	0.395508	-0.236084	0.283744	-0.281829	0.006447	-0.916526
35211		4.957747	-1.700075	8.162639	-0.012379	-0.004505	0.008958	-0.688477	0.404297	-0.234131	0.283771	-0.281847	0.006624	-0.916511
35212		4.953513	-1.774025	8.160893	-0.007983	-0.005624	0.006408	-0.700439	0.400146	-0.233887	0.283792	-0.281865	0.006735	-0.916498
35213		4.970838	-1.737636	8.150954	-0.001532	-0.000028	0.002421	-0.685547	0.398438	-0.232910	0.283780	-0.281796	0.006780	-0.916523
35214		4.946427	-1.708258	8.166454	-0.000207	0.000587	0.001246	-0.702881	0.399414	-0.228271	0.283764	-0.281714	0.006807	-0.916553
35215		4.949168	-1.731224	8.193446	-0.005602	-0.005621	0.005550	-0.692139	0.404541	-0.234863	0.283774	-0.281726	0.006887	-0.916545
35216		4.959106	-1.735674	8.175278	-0.002475	-0.007599	0.002389	-0.692871	0.387451	-0.235840	0.283765	-0.281746	0.006916	-0.916542
35217		4.948888	-1.718561	8.175828	-0.004946	-0.009294	0.004387	-0.686279	0.397949	-0.239502	0.283755	-0.281789	0.006982	-0.916531
35218		4.979170	-1.715181	8.155227	-0.004824	-0.005668	0.003892	-0.693604	0.403809	-0.229248	0.283752	-0.281790	0.007054	-0.916531
35219		4.950356	-1.728327	8.185916	-0.003913	-0.003879	0.005208	-0.694092	0.397949	-0.238037	0.283770	-0.281777	0.007118	-0.916529
35220		4.967818	-1.742180	8.163001	0.000879	-0.003995	0.002599	-0.694580	0.405518	-0.228760	0.283767	-0.281740	0.007126	-0.916541
35221		4.948935	-1.742950	8.152997	0.005159	-0.002837	0.000153	-0.697510	0.405273	-0.231689	0.283761	-0.281683	0.007072	-0.916561
35222		4.957004	-1.722376	8.164496	0.005919	-0.000706	0.000929	-0.702881	0.397217	-0.237549	0.283762	-0.281597	0.007022	-0.916588
35223		4.955610	-1.720201	8.196988	0.005041	-0.000559	0.000258	-0.695068	0.402100	-0.241455	0.283740	-0.281506	0.006988	-0.916623
35224		4.960627	-1.714178	8.176569	0.003930	0.000297	0.001727	-0.687988	0.402588	-0.230469	0.283740	-0.281407	0.006975	-0.916653
35225		4.956822	-1.705434	8.173292	0.002605	-0.000318	0.002903	-0.690918	0.401611	-0.239746	0.283757	-0.281329	0.006970	-0.916672
35226		4.952759	-1.718531	8.173490	0.002819	-0.002696	0.005126	-0.690918	0.393311	-0.239014	0.283794	-0.281269	0.006970	-0.916679
35227		4.941053	-1.736341	8.170399	0.002749	-0.002718	0.001905	-0.691895	0.400391	-0.234375	0.283784	-0.281208	0.006962	-0.916701
35228		4.941689	-1.706907	8.186449	0.000027	-0.007817	0.002965	-0.690674	0.394287	-0.241211	0.283787	-0.281222	0.006964	-0.916695
35229		4.971984	-1.702727	8.165986	-0.002687	-0.007011	0.003636	-0.693604	0.397217	-0.234131	0.283779	-0.281227	0.007011	-0.916696
35230		4.945051	-1.731443	8.155969	-0.003583	-0.004685	0.005398	-0.690674	0.399170	-0.233154	0.283792	-0.281218	0.007075	-0.916694
35231		4.965452	-1.731324	8.164905	-0.001569	-0.005810	0.003705	-0.685791	0.400391	-0.232178	0.283799	-0.281216	0.007103	-0.916693
35232		4.951053	-1.720065	8.154232	-0.000297	-0.004952	0.004315	-0.689453	0.398438	-0.232422	0.283824	-0.281200	0.007120	-0.916690
35233		4.950059	-1.719404	8.186180	-0.000296	-0.001104	0.002386	-0.691895	0.398438	-0.228516	0.283819	-0.281140	0.007145	-0.916709
35234		4.930707	-1.720873	8.176324	0.000760	-0.001716	0.002703	-0.698975	0.406250	-0.237793	0.283821	-0.281088	0.007154	-0.916725
35235		4.939449	-1.731375	8.170613	-0.002144	-0.006349	0.004116	-0.695557	0.404541	-0.241211	0.283831	-0.281092	0.007190	-0.916720
35236		4.948100	-1.733770	8.184835	0.001857	-0.008477	0.001621	-0.696777	0.398682	-0.244141	0.283825	-0.281101	0.007169	-0.916719
35237		4.961801	-1.730448	8.178535	0.000864	-0.006052	0.001058	-0.688965	0.400879	-0.234863	0.283796	-0.281079	0.007174	-0.916735
35238		4.939672	-1.723207	8.164786	0.001411	-0.005390	0.001539	-0.697754	0.392090	-0.243896	0.283792	-0.281061	0.007162	-0.916742
35239		4.951568	-1.718704	8.191046	0.001437	-0.005512	0.000645	-0.688232	0.396729	-0.233643	0.283746	-0.281027	0.007167	-0.916766
35240		4.945805	-1.716608	8.175013	0.000735	-0.009678	0.001551	-0.697754	0.386963	-0.243896	0.283735	-0.281061	0.007149	-0.916760
35241		4.931871	-1.711864	8.175752	-0.001738	-0.011371	0.003551	-0.686523	0.403076	-0.230225	0.283701	-0.281102	0.007184	-0.916757
35242		4.941578	-1.714863	8.189216	-0.004984	-0.013404	0.001309	-0.692139	0.400391	-0.237061	0.283687	-0.281208	0.007205	-0.916729
35243		4.953443	-1.718909	8.169904	-0.003256	-0.017813	-0.000435	-0.697266	0.409180	-0.233398	0.283642	-0.281347	0.007198	-0.916700
35244		4.981388	-1.713515	8.156650	-0.005475	-0.016100	0.002506	-0.691162	0.408203	-0.233887	0.283637	-0.281485	0.007221	-0.916659
35245		4.975510	-1.741178	8.155361	-0.003729	-0.010368	0.004350	-0.692383	0.401367	-0.236572	0.283665	-0.281548	0.007251	-0.916631
35246		4.960626	-1.707484	8.173105	-0.000604	-0.004266	0.003230	-0.688965	0.409912	-0.231934	0.283670	-0.281521	0.007275	-0.916638
35247		4.961172	-1.737619	8.156114	-0.002280	-0.000101	0.003189	-0.689697	0.405029	-0.230957	0.283697	-0.281465	0.007316	-0.916646
35248		4.952340	-1.735105	8.173294	0.000927	-0.000004	0.004781	-0.696289	0.403076	-0.234375	0.283741	-0.281396	0.007331	-0.916654
35249		4.960194	-1.745156	8.168175	0.003308	-0.000003	0.003918	-0.692383	0.403076	-0.243896	0.283767	-0.281311	0.007324	-0.916672
35250		4.960421	-1.737798	8.156532	0.005299	0.002841	0.001190	-0.692383	0.394531	-0.234619	0.283764	-0.281169	0.007310	-0.916716
35251		4.950947	-1.697415	8.179331	0.006348	0.008255	0.002012	-0.691406	0.395508	-0.237549	0.283758	-0.280973	0.007300	-0.916778
35252		4.932901	-1.727966	8.177896	0.002093	0.006980	0.003571	-0.693848	0.398193	-0.237549	0.283757	-0.280801	0.007343	-0.916831
35253		4.931725	-1.728155	8.178566	0.000509	0.002962	0.003807	-0.692383	0.395508	-0.233643	0.283759	-0.280685	0.007387	-0.916865
35254		4.918466	-1.753099	8.187970	0.000673	0.000440	0.001914	-0.687988	0.408691	-0.236328	0.283737	-0.280604	0.007409	-0.916897
35255		4.930928	-1.706138	8.207046	-0.002098	-0.006592	0.002328	-0.701904	0.397705	-0.241455	0.283757	-0.280617	0.007426	-0.916887
35256		4.929761	-1.700231	8.170334	-0.005158	-0.006644	0.007174	-0.689209	0.398682	-0.234619	0.283759	-0.280624	0.007523	-0.916883
35257		4.945804	-1.720492	8.191137	-0.002766	-0.008822	0.003878	-0.693359	0.396484	-0.235107	0.283763	-0.280660	0.007555	-0.916871
35258		4.951522	-1.737697	8.173239	-0.000878	-0.005492	0.004722	-0.686279	0.403564	-0.231689	0.283767	-0.280649	0.007587	-0.916872
35259		4.931460	-1.738144	8.195336	0.001047	-0.004461	0.002239	-0.695801	0.401855	-0.230469	0.283789	-0.280632	0.007572	-0.916871
35260		4.928627	-1.714847	8.199724	0.002180	-0.005440	-0.000125	-0.691406	0.397217	-0.231445	0.283764	-0.280627	0.007536	-0.916881
35261		4.947547	-1.699492	8.160993	0.000651	-0.005466	0.002298	-0.690918	0.399414	-0.241699	0.283753	-0.280619	0.007534	-0.916886
35262		4.955626	-1.716853	8.167249	-0.002922	-0.002452	0.003847	-0.694336	0.404297	-0.229004	0.283749	-0.280566	0.007605	-0.916903
35263		4.938219	-1.733121	8.204880	-0.002441	-0.003604	0.004573	-0.692871	0.396484	-0.232666	0.283774	-0.280561	0.007638	-0.916897
35264		4.923918	-1.736884	8.185866	-0.003555	-0.006983	0.002071	-0.692139	0.397217	-0.237793	0.283739	-0.280582	0.007681	-0.916901
35265		4.945344	-1.715489	8.190741	-0.005937	-0.006982	0.002934	-0.686768	0.396240	-0.236084	0.283706	-0.280599	0.007764	-0.916905
35266		4.943341	-1.723445	8.177707	-0.005373	-0.010292	0.004445	-0.686035	0.398682	-0.244385	0.283703	-0.280653	0.007831	-0.916889
35267		4.945206	-1.725058	8.176239	-0.005678	-0.009604	0.003364	-0.699951	0.403564	-0.235840	0.283691	-0.280680	0.007912	-0.916883
35268		4.974641	-1.749837	8.170950	-0.002749	-0.008944	0.002981	-0.691895	0.398926	-0.235596	0.283675	-0.280722	0.007941	-0.916875
35269		4.951855	-1.721099	8.185629	-0.003415	-0.005148	0.005043	-0.693115	0.401367	-0.235352	0.283683	-0.280716	0.008002	-0.916875
35270		4.924603	-1.734773	8.184188	-0.001008	-0.005271	0.003285	-0.696533	0.398926	-0.236816	0.283685	-0.280706	0.008025	-0.916877
35271		4.933727	-1.759397	8.170005	0.002926	-0.005367	-0.000896	-0.694824	0.401123	-0.231689	0.283632	-0.280678	0.007997	-0.916902
35272		4.951297	-1.691176	8.177006	0.006096	-0.001182	0.000556	-0.699707	0.399414	-0.242432	0.283624	-0.280607	0.007937	-0.916926
35273		4.935025	-1.722054	8.174410	-0.001799	-0.001252	0.003915	-0.692871	0.398438	-0.232422	0.283599	-0.280534	0.008008	-0.916956
35274		4.937940	-1.759233	8.193142	0.000715	-0.003654	0.002049	-0.689697	0.397217	-0.237549	0.283583	-0.280506	0.008010	-0.916969
35275		4.943063	-1.724845	8.188930	-0.000473	-0.000639	0.002738	-0.689941	0.407471	-0.237061	0.283574	-0.280430	0.008051	-0.916995
35276		4.943702	-1.718718	8.176769	-0.002829	-0.000760	0.002709	-0.696533	0.396973	-0.230957	0.283600	-0.280378	0.008098	-0.917003
35277		4.938942	-1.724869	8.197097	-0.002198	-0.002256	0.003974	-0.693848	0.397949	-0.239014	0.283578	-0.280349	0.008147	-0.917018
35278		4.939214	-1.740185	8.188508	0.000581	-0.001254	0.003050	-0.689941	0.406494	-0.245605	0.283563	-0.280274	0.008179	-0.917045
35279		4.932067	-1.737870	8.173349	0.004617	-0.001452	0.001194	-0.695801	0.403076	-0.238281	0.283591	-0.280175	0.008153	-0.917067
35280		4.920204	-1.711102	8.195335	0.001642	-0.004046	0.000929	-0.685059	0.408203	-0.240967	0.283574	-0.280140	0.008144	-0.917083
35281		4.909341	-1.714398	8.199996	-0.000620	-0.010293	0.002713	-0.689941	0.395996	-0.236572	0.283631	-0.280178	0.008134	-0.917054
35282		4.947531	-1.727072	8.185762	-0.003129	-0.010069	0.002146	-0.691650	0.394043	-0.239014	0.283595	-0.280222	0.008170	-0.917051
35283		4.945519	-1.719529	8.181184	-0.002662	-0.007252	0.001842	-0.690186	0.397949	-0.235596	0.283540	-0.280221	0.008221	-0.917068
35284		4.930573	-1.721986	8.194184	-0.003459	-0.009260	0.001959	-0.700439	0.394043	-0.239502	0.283512	-0.280263	0.008256	-0.917063
35285		4.932965	-1.716017	8.180927	-0.001855	-0.009214	0.002752	-0.692383	0.397949	-0.236816	0.283439	-0.280283	0.008301	-0.917080
35286		4.942041	-1.733649	8.186489	-0.002935	-0.008478	0.003332	-0.691895	0.400879	-0.234375	0.283421	-0.280311	0.008342	-0.917076
35287		4.938891	-1.732745	8.194280	-0.000893	-0.003700	0.001254	-0.693115	0.404297	-0.235840	0.283404	-0.280289	0.008357	-0.917088
35288		4.919539	-1.740774	8.196194	0.001241	-0.005050	0.000984	-0.692871	0.404541	-0.231445	0.283405	-0.280276	0.008339	-0.917092
35289		4.917146	-1.732217	8.192070	0.001673	-0.008138	0.001059	-0.687012	0.403809	-0.237061	0.283412	-0.280313	0.008294	-0.917079
35290		4.942736	-1.703210	8.208615	-0.000180	-0.009532	0.000864	-0.693604	0.399902	-0.244141	0.283429	-0.280348	0.008275	-0.917063
35291		4.933290	-1.729384	8.184112	-0.001578	-0.011958	0.002286	-0.688721	0.400635	-0.233398	0.283405	-0.280385	0.008301	-0.917059
35292		4.935336	-1.730268	8.182691	-0.004368	-0.008989	0.002185	-0.690430	0.398193	-0.235107	0.283399	-0.280438	0.008336	-0.917044
35293		4.952673	-1.736426	8.179471	-0.002596	-0.005438	0.001597	-0.691162	0.400879	-0.234131	0.283370	-0.280434	0.008373	-0.917054
35294		4.937282	-1.738917	8.192778	-0.003747	-0.006516	0.002422	-0.692627	0.405518	-0.231445	0.283361	-0.280455	0.008414	-0.917050
35295		4.943263	-1.720138	8.179552	-0.003947	-0.005929	0.003669	-0.691162	0.405762	-0.235107	0.283389	-0.280489	0.008447	-0.917031
35296		4.940028	-1.763979	8.162287	-0.004275	-0.005120	0.003484	-0.687256	0.401855	-0.234131	0.283419	-0.280499	0.008493	-0.917018
35297		4.948670	-1.730478	8.181475	0.000407	-0.002967	0.000966	-0.692871	0.396729	-0.245117	0.283428	-0.280464	0.008490	-0.917026
35298		4.928667	-1.738511	8.183810	-0.000199	0.000587	0.001247	-0.695312	0.403809	-0.230469	0.283369	-0.280338	0.008555	-0.917082
35299		4.928779	-1.739038	8.183630	-0.002022	-0.002722	0.003620	-0.692627	0.405273	-0.238281	0.283384	-0.280332	0.008579	-0.917079
35300		4.929717	-1.718358	8.179573	-0.002174	-0.002378	0.003081	-0.687012	0.396729	-0.245850	0.283406	-0.280291	0.008620	-0.917084
35301		4.933360	-1.734578	8.194407	-0.003876	-0.004116	0.003425	-0.693848	0.405518	-0.236328	0.283382	-0.280226	0.008716	-0.917111
35302		4.934805	-1.729128	8.181597	-0.004701	-0.006002	0.004434	-0.692627	0.401611	-0.238770	0.283411	-0.280246	0.008771	-0.917095
35303		4.919009	-1.746785	8.186728	-0.003653	-0.002646	0.003721	-0.689453	0.395508	-0.230957	0.283408	-0.280205	0.008841	-0.917108
35304		4.927583	-1.742916	8.189251	-0.001321	-0.004583	0.002202	-0.691406	0.404297	-0.235352	0.283372	-0.280200	0.008866	-0.917120
35305		4.927756	-1.736076	8.208924	-0.005508	-0.004039	0.003526	-0.699951	0.401611	-0.243896	0.283388	-0.280201	0.008934	-0.917114
35306		4.920968	-1.749879	8.184889	-0.001848	-0.003188	0.003264	-0.691406	0.403320	-0.236084	0.283349	-0.280140	0.009001	-0.917144
35307		4.918504	-1.749970	8.160658	-0.000595	-0.004389	0.002327	-0.687256	0.400635	-0.241211	0.283362	-0.280123	0.009012	-0.917146
35308		4.925981	-1.730189	8.203883	-0.002448	-0.003606	0.004569	-0.685791	0.408203	-0.241455	0.283387	-0.280073	0.009073	-0.917152
35309		4.907109	-1.732665	8.193629	-0.005607	-0.005731	0.004660	-0.690918	0.403809	-0.240967	0.283469	-0.280071	0.009139	-0.917127
35310		4.919963	-1.767509	8.182241	-0.005379	-0.008234	0.005978	-0.694824	0.403320	-0.230713	0.283507	-0.280093	0.009216	-0.917108
35311		4.929912	-1.742727	8.180519	-0.004309	-0.007174	0.001937	-0.688232	0.406250	-0.236084	0.283492	-0.280149	0.009245	-0.917095
35312		4.931007	-1.729228	8.187973	-0.003578	-0.004804	0.004500	-0.693359	0.404297	-0.240234	0.283555	-0.280151	0.009285	-0.917075
35313		4.931149	-1.752205	8.190858	-0.004505	-0.004413	0.005621	-0.686279	0.402588	-0.233887	0.283584	-0.280130	0.009363	-0.917071
35314		4.915458	-1.770038	8.195883	-0.004860	-0.005658	0.003892	-0.696289	0.408203	-0.230469	0.283614	-0.280148	0.009417	-0.917056
35315		4.909647	-1.747543	8.176348	-0.001599	-0.005812	0.003686	-0.690430	0.403320	-0.231934	0.283667	-0.280191	0.009410	-0.917026
35316		4.922115	-1.737483	8.190457	-0.003330	-0.003456	0.003903	-0.688721	0.404541	-0.232910	0.283694	-0.280191	0.009449	-0.917018
35317		4.922256	-1.745669	8.201734	-0.005036	-0.005193	0.004246	-0.695801	0.409180	-0.240967	0.283735	-0.280214	0.009501	-0.916997
35318		4.919828	-1.767976	8.180578	-0.003511	-0.009138	0.002838	-0.684082	0.405029	-0.240479	0.283765	-0.280249	0.009532	-0.916977
35319		4.937897	-1.737881	8.181986	-0.002988	-0.006562	0.000755	-0.693848	0.406494	-0.241943	0.283777	-0.280240	0.009565	-0.916976
35320		4.915642	-1.731785	8.168251	-0.005789	-0.005266	0.005013	-0.683105	0.395752	-0.237061	0.283804	-0.280226	0.009655	-0.916971
35321		4.923160	-1.763650	8.197856	-0.003816	-0.008449	0.001761	-0.682861	0.407959	-0.234619	0.283742	-0.280238	0.009717	-0.916985
35322		4.917277	-1.776842	8.173350	-0.000153	-0.007600	0.001497	-0.696045	0.397217	-0.233154	0.283822	-0.280267	0.009684	-0.916953
35323		4.935274	-1.760462	8.166616	0.002077	-0.007259	0.000088	-0.687500	0.402588	-0.231689	0.283738	-0.280276	0.009666	-0.916976
35324		4.924508	-1.748549	8.179804	0.001902	-0.006794	0.000443	-0.692139	0.405029	-0.239014	0.283747	-0.280294	0.009622	-0.916968
35325		4.905052	-1.763138	8.193568	0.000096	-0.006251	0.000901	-0.684082	0.405029	-0.239990	0.283747	-0.280282	0.009620	-0.916972
35326		4.931611	-1.750000	8.169454	0.001399	-0.009491	0.001631	-0.687988	0.402832	-0.242676	0.283790	-0.280292	0.009594	-0.916956
35327		4.935950	-1.757188	8.204161	0.001346	-0.007453	-0.000039	-0.685059	0.405029	-0.244629	0.283767	-0.280262	0.009590	-0.916972
35328		4.942008	-1.766425	8.174390	0.000520	-0.005368	-0.000049	-0.690674	0.402100	-0.245117	0.283773	-0.280203	0.009597	-0.916988
35329		4.922397	-1.751571	8.205083	0.002106	-0.005204	0.001632	-0.693848	0.398193	-0.239990	0.283750	-0.280132	0.009610	-0.917017
35330		4.915362	-1.756029	8.201518	0.001802	-0.004515	0.000557	-0.697998	0.399170	-0.234375	0.283669	-0.280076	0.009624	-0.917059
35331		4.905451	-1.745470	8.182416	-0.001015	-0.007569	-0.000060	-0.691162	0.404053	-0.238281	0.283578	-0.280101	0.009636	-0.917079
35332		4.934724	-1.739954	8.193872	-0.000560	-0.008603	0.001552	-0.685059	0.397705	-0.236084	0.283586	-0.280122	0.009633	-0.917070
35333		4.932408	-1.746554	8.181236	-0.000809	-0.005980	0.001130	-0.690186	0.401367	-0.240234	0.283546	-0.280108	0.009655	-0.917087
35334		4.921440	-1.735382	8.194421	-0.001538	-0.006174	0.001005	-0.686279	0.400146	-0.234375	0.283515	-0.280086	0.009686	-0.917102
35335		4.910935	-1.746929	8.178814	-0.001257	-0.006743	0.002972	-0.683105	0.403809	-0.235840	0.283522	-0.280099	0.009701	-0.917096
35336		4.919725	-1.734642	8.201395	0.000114	-0.006372	0.000006	-0.688965	0.405029	-0.228271	0.283556	-0.280100	0.009678	-0.917086
35337		4.921603	-1.742479	8.180189	0.000590	-0.007526	0.000726	-0.693359	0.401611	-0.234619	0.283601	-0.280164	0.009622	-0.917053
35338		4.938386	-1.754610	8.189039	0.000243	-0.006596	0.001436	-0.687744	0.396729	-0.233643	0.283579	-0.280175	0.009617	-0.917056
35339		4.935835	-1.731599	8.193412	0.000169	-0.004438	0.000660	-0.691406	0.406006	-0.235352	0.283516	-0.280152	0.009630	-0.917083
35340		4.940871	-1.733821	8.184123	-0.003734	-0.004459	0.003962	-0.694336	0.400391	-0.237549	0.283570	-0.280158	0.009668	-0.917064
35341		4.928644	-1.759381	8.192824	-0.000395	-0.002801	0.003511	-0.693359	0.395020	-0.237793	0.283544	-0.280109	0.009706	-0.917087
35342		4.921013	-1.749542	8.197957	0.002086	-0.001112	0.001506	-0.692627	0.399658	-0.242920	0.283440	-0.280016	0.009739	-0.917147
35343		4.905978	-1.737110	8.188125	0.002757	-0.002853	0.000976	-0.695801	0.399170	-0.235352	0.283388	-0.279922	0.009749	-0.917191
35344		4.921452	-1.770898	8.200988	-0.002083	-0.004657	0.002964	-0.684082	0.407715	-0.230713	0.283329	-0.279914	0.009798	-0.917212
35345		4.923124	-1.749582	8.196680	0.001740	-0.006450	-0.000101	-0.687256	0.408203	-0.241455	0.283423	-0.279954	0.009721	-0.917171
35346		4.920879	-1.755595	8.184121	0.000932	-0.008457	0.000013	-0.690430	0.397705	-0.235840	0.283491	-0.279958	0.009681	-0.917149
35347		4.934318	-1.752302	8.177782	0.001603	-0.003930	0.001801	-0.678711	0.403320	-0.233398	0.283441	-0.279917	0.009688	-0.917177
35348		4.921860	-1.754163	8.215398	0.002201	-0.003512	0.000495	-0.695068	0.402100	-0.235352	0.283519	-0.279892	0.009638	-0.917161
35349		4.903988	-1.741440	8.181575	0.000297	-0.004662	0.002089	-0.691406	0.398926	-0.238770	0.283501	-0.279882	0.009642	-0.917170
35350		4.921115	-1.717765	8.195279	-0.002142	-0.006591	0.002310	-0.681396	0.400879	-0.240967	0.283449	-0.279872	0.009689	-0.917188
35351		4.913905	-1.745474	8.194728	-0.007732	-0.008468	0.005067	-0.689453	0.402344	-0.231689	0.283488	-0.279887	0.009789	-0.917170
35352		4.923437	-1.757166	8.188042	-0.003398	-0.009362	0.004265	-0.697021	0.397705	-0.238525	0.283521	-0.279964	0.009807	-0.917137
35353		4.917555	-1.741658	8.180211	-0.004221	-0.007276	0.004258	-0.689697	0.400635	-0.227783	0.283434	-0.279970	0.009895	-0.917161
35354		4.910618	-1.747510	8.176303	-0.002966	-0.004506	0.002301	-0.689941	0.406982	-0.243896	0.283424	-0.280009	0.009917	-0.917152
35355		4.902689	-1.767414	8.196278	-0.007180	-0.007809	0.005546	-0.688721	0.404053	-0.244873	0.283494	-0.280015	0.010007	-0.917127
35356		4.920355	-1.759473	8.201013	-0.002307	-0.010219	0.002782	-0.686523	0.400146	-0.237549	0.283516	-0.280016	0.010039	-0.917120
35357		4.910657	-1.756583	8.193300	-0.003169	-0.010188	0.001228	-0.694580	0.408447	-0.235840	0.283487	-0.280055	0.010069	-0.917117
35358		4.928450	-1.762739	8.189634	-0.002654	-0.009289	0.003493	-0.686523	0.402832	-0.243408	0.283557	-0.280119	0.010068	-0.917075
35359		4.933803	-1.757758	8.200121	-0.005836	-0.007318	0.003471	-0.685303	0.402344	-0.242188	0.283569	-0.280102	0.010154	-0.917076
35360		4.915374	-1.760187	8.189698	-0.003648	-0.006738	0.003843	-0.687500	0.402588	-0.234863	0.283595	-0.280076	0.010214	-0.917075
35361		4.929099	-1.758229	8.182868	-0.003235	-0.009828	0.003903	-0.688232	0.401367	-0.235352	0.283627	-0.280134	0.010237	-0.917047
35362		4.935354	-1.731791	8.189576	-0.005748	-0.009597	0.003351	-0.689697	0.400635	-0.242676	0.283619	-0.280191	0.010297	-0.917032
35363		4.911971	-1.776109	8.194665	-0.006540	-0.009430	0.005904	-0.692627	0.404785	-0.240967	0.283604	-0.280199	0.010406	-0.917033
35364		4.914472	-1.770916	8.181115	-0.003879	-0.012300	0.003657	-0.697021	0.401855	-0.235352	0.283621	-0.280255	0.010442	-0.917010
35365		4.929505	-1.739864	8.190374	-0.006304	-0.014348	0.002984	-0.685547	0.401855	-0.235840	0.283560	-0.280374	0.010501	-0.916992
35366		4.931925	-1.756419	8.180038	-0.007013	-0.012368	0.005302	-0.689453	0.402832	-0.233643	0.283591	-0.280460	0.010570	-0.916955
35367		4.905598	-1.777971	8.189785	-0.008455	-0.012874	0.004161	-0.692383	0.404785	-0.233398	0.283596	-0.280576	0.010644	-0.916917
35368		4.932211	-1.780433	8.188369	-0.005107	-0.015311	0.003819	-0.683594	0.400635	-0.234131	0.283619	-0.280715	0.010664	-0.916867
35369		4.943784	-1.763419	8.165537	-0.005074	-0.011457	0.001919	-0.682617	0.398682	-0.239258	0.283609	-0.280786	0.010704	-0.916848
35370		4.941448	-1.770024	8.184532	-0.004772	-0.012148	0.002990	-0.690430	0.404785	-0.232666	0.283580	-0.280822	0.010768	-0.916845
35371		4.936345	-1.754571	8.176276	-0.004945	-0.011683	0.003346	-0.695801	0.403564	-0.234863	0.283610	-0.280920	0.010794	-0.916806
35372		4.914317	-1.791618	8.168934	-0.004945	-0.015777	0.003457	-0.691650	0.398682	-0.235840	0.283584	-0.281049	0.010828	-0.916774
35373		4.961932	-1.763995	8.161254	-0.003516	-0.013470	0.001146	-0.687500	0.410645	-0.237305	0.283484	-0.281122	0.010870	-0.916782
35374		4.964362	-1.764928	8.159574	-0.003622	-0.011072	0.002162	-0.690918	0.402100	-0.236084	0.283609	-0.281187	0.010858	-0.916724
35375		4.941694	-1.786789	8.161242	-0.003282	-0.007908	0.001336	-0.684814	0.410400	-0.241699	0.283568	-0.281201	0.010899	-0.916732
35376		4.931402	-1.761442	8.182660	-0.002266	-0.008288	0.003422	-0.689941	0.410645	-0.235596	0.283719	-0.281195	0.010896	-0.916687
35377		4.940900	-1.772402	8.176029	-0.003558	-0.009139	0.002819	-0.696045	0.407715	-0.232666	0.283841	-0.281250	0.010891	-0.916632
35378		4.958412	-1.778847	8.172350	-0.003900	-0.008209	0.003533	-0.696045	0.408691	-0.237793	0.283894	-0.281312	0.010909	-0.916596
35379		4.943504	-1.781297	8.185720	-0.001263	-0.006866	0.002060	-0.689453	0.405762	-0.233887	0.283943	-0.281315	0.010909	-0.916580
35380		4.921490	-1.774642	8.172156	-0.003883	-0.008328	0.002640	-0.687012	0.403076	-0.233154	0.283984	-0.281358	0.010933	-0.916554
35381		4.940011	-1.745339	8.173121	-0.007509	-0.011213	0.004580	-0.686279	0.403076	-0.236328	0.284001	-0.281442	0.011006	-0.916522
35382		4.948727	-1.808006	8.152852	-0.005213	-0.008940	0.003821	-0.689453	0.403320	-0.227295	0.284010	-0.281467	0.011070	-0.916511
35383		4.926417	-1.786475	8.179816	-0.005214	-0.008940	0.003821	-0.690430	0.405762	-0.236328	0.284033	-0.281558	0.011105	-0.916475
35384		4.932447	-1.789499	8.169644	-0.004249	-0.011373	0.004352	-0.685547	0.399902	-0.240234	0.284075	-0.281617	0.011141	-0.916444
35385		4.950588	-1.795701	8.165604	-0.000782	-0.012236	0.001982	-0.678711	0.401123	-0.229004	0.284006	-0.281624	0.011171	-0.916462
35386		4.961629	-1.755703	8.171960	-0.005744	-0.009835	0.001554	-0.687500	0.405273	-0.239258	0.284012	-0.281699	0.011210	-0.916437
35387		4.942850	-1.772195	8.185179	-0.007143	-0.009972	0.006308	-0.689941	0.414551	-0.226807	0.284064	-0.281725	0.011300	-0.916412
35388		4.957181	-1.779351	8.157313	-0.009597	-0.011899	0.006529	-0.687256	0.410400	-0.238037	0.284303	-0.281899	0.011316	-0.916284
35389		4.926795	-1.807230	8.155551	-0.006452	-0.011950	0.003981	-0.684326	0.401367	-0.234131	0.284419	-0.281965	0.011351	-0.916227
35390		4.937095	-1.796364	8.177094	-0.005045	-0.013617	0.002669	-0.686279	0.403809	-0.233398	0.284375	-0.282043	0.011404	-0.916216
35391		4.948157	-1.785888	8.166286	-0.002987	-0.012813	0.001607	-0.696777	0.402344	-0.233398	0.284369	-0.282118	0.011415	-0.916195
35392		4.958397	-1.796514	8.159201	-0.000963	-0.011772	0.002330	-0.689697	0.408691	-0.228760	0.284303	-0.282177	0.011428	-0.916197
35393		4.952369	-1.801970	8.154837	-0.003577	-0.009139	0.002809	-0.691406	0.402832	-0.229736	0.284405	-0.282261	0.011418	-0.916140
35394		4.950420	-1.794365	8.150346	-0.002081	-0.008992	0.001266	-0.695557	0.404785	-0.234863	0.284369	-0.282314	0.011430	-0.916135
35395		4.955610	-1.803435	8.152544	-0.002329	-0.006248	0.001752	-0.689941	0.408936	-0.236328	0.284335	-0.282307	0.011466	-0.916147
35396		4.952482	-1.794418	8.180916	0.000479	-0.005370	-0.000081	-0.690186	0.408936	-0.226318	0.284391	-0.282278	0.011439	-0.916138
35397		4.946286	-1.785460	8.153360	-0.000151	-0.005554	0.003010	-0.689697	0.411133	-0.238037	0.284522	-0.282327	0.011394	-0.916083
35398		4.935038	-1.788820	8.158526	0.001008	-0.004477	0.002184	-0.679199	0.406494	-0.234131	0.284641	-0.282279	0.011364	-0.916061
35399		4.951925	-1.779257	8.164012	0.002200	-0.003636	-0.000427	-0.684082	0.406250	-0.239258	0.284698	-0.282224	0.011324	-0.916061
35400		4.960343	-1.781237	8.178520	0.000856	-0.004130	0.001650	-0.692139	0.403076	-0.236084	0.284724	-0.282146	0.011330	-0.916077
35401		4.953338	-1.779303	8.163145	-0.001114	-0.003120	0.002483	-0.691406	0.403564	-0.234375	0.284675	-0.282085	0.011379	-0.916111
35402		4.930031	-1.801449	8.133370	0.000276	-0.004669	0.002063	-0.687500	0.399170	-0.238281	0.284649	-0.282050	0.011394	-0.916129
35403		4.930315	-1.792850	8.185549	0.000476	-0.005370	-0.000082	-0.685791	0.404785	-0.236572	0.284504	-0.281978	0.011440	-0.916196
35404		4.956020	-1.800781	8.164664	0.003180	-0.010401	-0.001585	-0.687988	0.403564	-0.230713	0.284493	-0.281984	0.011380	-0.916198
35405		4.950932	-1.776443	8.145178	0.001606	-0.008269	0.000086	-0.690186	0.403320	-0.241455	0.284485	-0.282012	0.011342	-0.916193
35406		4.955925	-1.776791	8.168026	0.001375	-0.005643	-0.000319	-0.686035	0.409668	-0.230713	0.284412	-0.281932	0.011355	-0.916240
35407		4.956608	-1.791043	8.159106	0.003067	-0.003673	0.001120	-0.692871	0.406250	-0.230225	0.284563	-0.281920	0.011273	-0.916197
35408		4.945254	-1.779065	8.173098	0.002425	-0.002050	0.000769	-0.692871	0.399658	-0.237061	0.284606	-0.281891	0.011231	-0.916193
35409		4.941679	-1.784837	8.161287	0.003310	-0.002205	0.001424	-0.696289	0.409912	-0.231689	0.284487	-0.281791	0.011254	-0.916261
35410		4.953727	-1.788055	8.167416	0.003721	-0.001202	0.001369	-0.691895	0.406006	-0.227539	0.284598	-0.281753	0.011185	-0.916239
35411		4.942142	-1.776039	8.181556	0.002577	-0.002397	0.001303	-0.689453	0.403320	-0.236572	0.284661	-0.281748	0.011132	-0.916222
35412		4.947139	-1.770564	8.160574	0.000534	-0.003319	0.001474	-0.693115	0.400879	-0.231445	0.284632	-0.281685	0.011150	-0.916250
35413		4.935172	-1.795701	8.169294	-0.002517	-0.005664	0.003006	-0.688477	0.403809	-0.233398	0.284566	-0.281693	0.011202	-0.916267
35414		4.951947	-1.794195	8.186305	-0.003250	-0.005856	0.002885	-0.687744	0.406006	-0.234619	0.284571	-0.281697	0.011242	-0.916264
35415		4.961167	-1.783330	8.176655	-0.001403	-0.002545	0.000522	-0.683105	0.405518	-0.243652	0.284600	-0.281653	0.011253	-0.916269
35416		4.929335	-1.794627	8.184899	-0.000230	-0.003274	0.003138	-0.694580	0.401855	-0.228027	0.284635	-0.281540	0.011285	-0.916292
35417		4.942752	-1.778451	8.154708	-0.003631	-0.002883	0.001945	-0.688721	0.413086	-0.231445	0.284578	-0.281552	0.011340	-0.916305
35418		4.927128	-1.780942	8.168665	-0.002275	-0.004196	0.003309	-0.681885	0.402100	-0.232178	0.284797	-0.281577	0.011303	-0.916230
35419		4.939202	-1.792452	8.186203	-0.002427	-0.003849	0.002775	-0.688232	0.408203	-0.236572	0.284793	-0.281554	0.011345	-0.916238
35420		4.940364	-1.786153	8.173635	-0.000460	-0.004861	0.001940	-0.685059	0.411377	-0.227295	0.284876	-0.281526	0.011333	-0.916221
35421		4.949368	-1.781979	8.175894	-0.000903	-0.005627	0.003779	-0.677734	0.410889	-0.235840	0.285108	-0.281586	0.011271	-0.916131
35422		4.950189	-1.782360	8.175315	0.000684	-0.003666	0.002006	-0.692627	0.408936	-0.237305	0.285291	-0.281545	0.011222	-0.916087
35423		4.926541	-1.796350	8.166182	0.001829	-0.002471	0.002072	-0.691406	0.403809	-0.230469	0.285377	-0.281483	0.011194	-0.916080
35424		4.934896	-1.798188	8.180765	0.003399	-0.004604	0.000398	-0.691650	0.396729	-0.244629	0.285377	-0.281475	0.011146	-0.916082
35425		4.948267	-1.787711	8.162584	0.002483	-0.004212	0.001529	-0.690918	0.403564	-0.230713	0.285127	-0.281338	0.011226	-0.916202
35426		4.908383	-1.809872	8.179812	0.002070	-0.005215	0.001584	-0.686035	0.404541	-0.227539	0.285130	-0.281341	0.011198	-0.916200
35427		4.938258	-1.789817	8.167319	0.006003	-0.007239	-0.000088	-0.687744	0.408691	-0.237305	0.285185	-0.281376	0.011089	-0.916174
35428		4.951336	-1.799764	8.152689	0.008887	-0.004430	-0.001263	-0.694092	0.407471	-0.222900	0.285275	-0.281309	0.010958	-0.916168
35429		4.939966	-1.785959	8.167130	0.010964	0.000467	-0.002430	-0.690674	0.403809	-0.236572	0.285395	-0.281292	0.010774	-0.916138
35430		4.901772	-1.711585	8.223575	0.005790	-0.004731	-0.001385	-0.690918	0.403320	-0.237061	0.285358	-0.281236	0.010712	-0.916167
35431		4.938431	-1.767874	8.183339	-0.005409	-0.012684	0.003392	-0.691406	0.400635	-0.231445	0.285326	-0.281306	0.010770	-0.916155
35432		4.956600	-1.782300	8.158711	-0.003838	-0.010605	0.002509	-0.680664	0.405273	-0.237061	0.285255	-0.281380	0.010815	-0.916154
35433		4.953563	-1.802768	8.169868	0.000938	-0.006528	0.000625	-0.691650	0.412109	-0.226074	0.285290	-0.281352	0.010793	-0.916152
35434		4.955625	-1.766015	8.174192	0.005026	-0.004686	0.000277	-0.696533	0.402588	-0.230469	0.285522	-0.281403	0.010643	-0.916066
35435		4.932596	-1.764937	8.173420	0.000117	-0.004322	0.001527	-0.690430	0.411133	-0.237549	0.285496	-0.281409	0.010645	-0.916072
35436		4.949376	-1.785103	8.161618	0.000096	-0.008416	0.001627	-0.686523	0.406250	-0.229248	0.285642	-0.281429	0.010591	-0.916021
35437		4.938174	-1.802414	8.158376	0.004568	-0.003647	-0.001325	-0.691895	0.403320	-0.235840	0.285717	-0.281423	0.010498	-0.916000
35438		4.919022	-1.785562	8.190102	0.011990	-0.002563	-0.006377	-0.693115	0.407227	-0.225830	0.285637	-0.281325	0.010355	-0.916057
35439		4.937438	-1.744792	8.180274	0.009771	-0.007232	-0.006636	-0.692383	0.406738	-0.233643	0.285715	-0.281380	0.010148	-0.916018
35440		4.954800	-1.747540	8.177308	0.007181	-0.004716	-0.007041	-0.693604	0.404541	-0.241943	0.285720	-0.281355	0.010010	-0.916026
35441		4.957905	-1.810810	8.147396	0.019104	0.003428	-0.011713	-0.692139	0.409912	-0.237305	0.285602	-0.281126	0.009797	-0.916135
35442		4.971766	-1.836264	8.130924	0.045692	0.019982	-0.030586	-0.686035	0.394775	-0.239990	0.285537	-0.280670	0.009207	-0.916301
35443		4.896554	-1.931640	8.126219	0.095647	0.045566	-0.057936	-0.688965	0.395996	-0.244629	0.284967	-0.279682	0.008165	-0.916791
35444		4.966152	-1.785629	8.165688	0.139777	0.071191	-0.085153	-0.687256	0.394531	-0.240479	0.284295	-0.278236	0.006596	-0.917452
35445		4.952183	-1.591628	8.228856	0.141840	0.087665	-0.085796	-0.697754	0.397217	-0.245605	0.283695	-0.276646	0.005026	-0.918128
35446		4.912868	-1.582768	8.228262	0.131576	0.089849	-0.072743	-0.690918	0.397217	-0.245117	0.283296	-0.275075	0.003595	-0.918730
35447		4.819952	-1.650470	8.238968	0.144944	0.090285	-0.086662	-0.696777	0.380371	-0.254150	0.282867	-0.273476	0.001936	-0.919344
35448		4.818607	-1.474814	8.258851	0.155292	0.094267	-0.099449	-0.689697	0.380859	-0.255859	0.281933	-0.271713	0.000258	-0.920155
35449		4.843692	-1.186156	8.333937	0.108756	0.095874	-0.082296	-0.695068	0.380615	-0.260986	0.281151	-0.270108	-0.000857	-0.920867
35450		4.844908	-1.223905	8.369197	0.054787	0.089850	-0.051311	-0.699463	0.374512	-0.268066	0.280567	-0.268756	-0.001276	-0.921440
35451		4.853024	-1.452853	8.297358	0.032081	0.076222	-0.034263	-0.696289	0.375000	-0.265381	0.279964	-0.267597	-0.001379	-0.921960
35452		4.834120	-1.695124	8.194435	0.073169	0.097566	-0.046437	-0.693604	0.379883	-0.264160	0.279425	-0.266081	-0.001948	-0.922561
35453		4.771339	-1.655305	8.234183	0.116710	0.141651	-0.064370	-0.690186	0.374512	-0.273193	0.278983	-0.263947	-0.002977	-0.923305
35454		4.736837	-1.506919	8.341003	0.129987	0.154435	-0.072413	-0.684082	0.372070	-0.282959	0.278434	-0.261563	-0.004116	-0.924144
35455		4.745686	-1.272263	8.408810	0.125273	0.154424	-0.059765	-0.689453	0.371094	-0.278564	0.278053	-0.259146	-0.005162	-0.924934
35456		4.627971	-1.201064	8.563289	0.093147	0.122645	-0.043760	-0.691406	0.368652	-0.287354	0.277732	-0.257280	-0.005904	-0.925547
35457		4.617268	-1.191404	8.540328	0.069406	0.079940	-0.034256	-0.686279	0.370361	-0.290527	0.277406	-0.255950	-0.006475	-0.926009
35458		4.483217	-1.233170	8.520141	0.051454	0.038782	-0.026909	-0.692871	0.365479	-0.288086	0.277214	-0.255153	-0.006986	-0.926283
35459		4.552695	-1.092724	8.531658	0.020103	-0.015442	-0.013396	-0.684326	0.374023	-0.294678	0.276927	-0.255120	-0.007245	-0.926376
35460		4.660782	-1.255330	8.472404	-0.006435	-0.032646	0.002071	-0.690430	0.361084	-0.286621	0.277020	-0.255345	-0.007278	-0.926286
35461		4.693862	-1.361232	8.415644	-0.001690	-0.027304	-0.003761	-0.684326	0.367920	-0.286377	0.276713	-0.255519	-0.007279	-0.926330
35462		4.719369	-1.352583	8.379179	0.017655	-0.005736	-0.015060	-0.691406	0.370605	-0.290039	0.276560	-0.255386	-0.007525	-0.926410
35463		4.578305	-1.222250	8.413859	0.022906	0.005093	-0.010620	-0.687744	0.363525	-0.285645	0.276478	-0.255104	-0.007780	-0.926510
35464		4.521052	-1.184175	8.444494	0.011411	-0.004949	-0.003177	-0.688477	0.362305	-0.286377	0.276330	-0.254990	-0.007885	-0.926585
35465		4.613358	-1.391162	8.401834	0.018931	-0.013783	-0.004260	-0.691406	0.362549	-0.290039	0.276171	-0.254948	-0.008105	-0.926642
35466		4.533475	-1.366270	8.367289	0.053276	-0.002689	-0.024465	-0.692627	0.372314	-0.280518	0.275886	-0.254635	-0.008746	-0.926807
35467		4.389173	-1.312140	8.472570	0.074850	-0.031890	-0.039931	-0.689209	0.361084	-0.289551	0.275658	-0.254690	-0.009846	-0.926849
35468		4.557464	-1.077157	8.468668	0.077888	-0.080154	-0.058108	-0.696533	0.362549	-0.293457	0.275100	-0.255193	-0.011159	-0.926861
35469		4.378809	-1.023474	8.482931	0.051353	-0.113469	-0.067567	-0.693848	0.353760	-0.294922	0.274354	-0.256158	-0.012311	-0.926802
35470		4.642185	-0.895792	8.603211	0.007639	-0.196636	-0.061382	-0.702393	0.359619	-0.281738	0.273448	-0.258191	-0.013196	-0.926493
35471		4.707045	-1.335499	8.428711	0.006645	-0.232480	-0.062774	-0.708496	0.362305	-0.282959	0.272528	-0.260743	-0.014213	-0.926034
35472		4.622588	-1.018530	8.542667	0.044281	-0.265773	-0.074625	-0.708008	0.354492	-0.278564	0.271641	-0.263526	-0.015829	-0.925481
35473		4.544034	-1.365180	8.657455	0.118813	-0.396479	-0.030703	-0.707031	0.344482	-0.276611	0.271399	-0.267555	-0.018582	-0.924344
35474		4.679374	-0.710736	8.786816	0.203445	-0.533920	0.000307	-0.724365	0.346924	-0.271729	0.271680	-0.272829	-0.022645	-0.922627
35475		4.621689	-1.602732	8.556856	0.223824	-0.691674	-0.036724	-0.722656	0.349854	-0.260010	0.271457	-0.279839	-0.027578	-0.920457
35476		4.889595	-1.888081	8.764125	0.325346	-0.957202	-0.150636	-0.739258	0.336182	-0.246582	0.270346	-0.289506	-0.035026	-0.917536
35477		5.185831	-2.002010	8.594787	0.547008	-1.212552	-0.294788	-0.758789	0.331055	-0.229248	0.267973	-0.301225	-0.046313	-0.913952
35478		5.100880	-1.195995	9.030934	0.816261	-1.463048	-0.400124	-0.776611	0.308594	-0.216064	0.265256	-0.314784	-0.061913	-0.909240
35479		5.571015	-1.762856	8.342975	1.219068	-1.746204	-0.516315	-0.806885	0.290527	-0.203857	0.262664	-0.329978	-0.083523	-0.902854
35480		5.754590	-1.466432	8.705180	1.808104	-2.061155	-0.696598	-0.827637	0.266357	-0.187744	0.259913	-0.346284	-0.113479	-0.894234
35481		6.185445	-1.554788	8.260358	2.541373	-2.419735	-0.938208	-0.859375	0.218994	-0.155518	0.256695	-0.363299	-0.153639	-0.882336
35482		6.323669	-1.543172	8.273420	3.223217	-2.855178	-1.192678	-0.898193	0.158203	-0.135742	0.252265	-0.381499	-0.203454	-0.865694
35483		7.720526	-2.582867	8.490019	4.031131	-3.251826	-1.536229	-0.931885	0.095947	-0.088867	0.245993	-0.399109	-0.264088	-0.842886
35484		11.369131	-3.269584	8.250877	4.722905	-3.419065	-1.966586	-0.975586	0.018066	-0.044922	0.236797	-0.412853	-0.333249	-0.813895
35485		15.212719	-3.417653	6.898737	4.983133	-3.120890	-1.983961	-0.983643	-0.058838	0.002197	0.228593	-0.420282	-0.402256	-0.780575
35486		19.630875	-12.891040	8.277369	4.900529	-1.836717	1.070678	-0.977051	-0.063477	0.026123	0.254994	-0.428597	-0.448649	-0.741617
35487		13.951804	-10.852924	7.345876	5.631211	-0.030951	4.738427	-0.941895	0.034424	0.003418	0.327707	-0.435660	-0.473467	-0.691836
35488		6.234341	1.224679	8.390679	4.213876	0.816141	5.023267	-0.871826	0.121094	-0.041748	0.397706	-0.439565	-0.477384	-0.648628
35489		2.521069	0.698024	8.607489	2.138100	1.042983	3.895431	-0.824463	0.185059	-0.087158	0.446564	-0.442986	-0.467129	-0.621397
35490		4.235364	-2.308589	9.884954	1.121645	1.669753	2.686255	-0.766357	0.216309	-0.124268	0.482956	-0.439024	-0.450984	-0.608789
35491		5.085092	-5.322135	9.333895	1.208593	2.985362	2.080518	-0.692871	0.238037	-0.191650	0.521637	-0.420202	-0.429950	-0.605366
35492		2.684594	-4.651142	6.855146	1.566007	3.768431	1.930840	-0.632324	0.236816	-0.247070	0.563814	-0.391147	-0.406111	-0.603483
35493		3.666975	-4.117070	7.097879	0.918044	3.817308	1.769454	-0.561768	0.227539	-0.301758	0.600120	-0.364245	-0.376589	-0.604452
35494		7.442759	-7.509624	7.066272	0.486390	4.160849	1.684532	-0.490479	0.229004	-0.330566	0.633585	-0.336439	-0.340471	-0.607830
35495		7.791350	-8.113128	5.806832	0.535436	4.020440	2.275909	-0.426514	0.229492	-0.347900	0.669049	-0.310685	-0.302238	-0.603739
35496		9.456366	-7.335752	7.213773	0.311828	3.386197	3.439604	-0.373047	0.237061	-0.330322	0.707664	-0.294846	-0.262053	-0.586179
35497		10.818211	-5.570392	8.060825	0.299018	2.963974	3.991494	-0.385254	0.241943	-0.332764	0.746230	-0.282868	-0.222502	-0.560017
35498		13.855801	-5.276861	9.099038	0.496353	2.961332	3.491519	-0.400879	0.267822	-0.407227	0.779316	-0.266623	-0.185341	-0.535936
35499		15.086366	-4.810728	7.623573	0.805376	3.288335	3.055269	-0.344482	0.333008	-0.463379	0.808715	-0.243266	-0.147939	-0.514700
35500		15.520154	-3.146660	5.392621	0.768195	3.142372	3.068007	-0.316406	0.391357	-0.514648	0.835249	-0.220453	-0.111299	-0.491297
35501		16.762349	-1.039119	2.939479	0.608228	2.684983	2.838644	-0.257568	0.451416	-0.605957	0.856991	-0.201173	-0.078808	-0.467852
35502		17.498084	-1.270193	-0.779534	0.378149	1.875359	2.046063	-0.174072	0.498535	-0.668701	0.871166	-0.187939	-0.055525	-0.450184
35503		18.201928	-0.963666	-2.505256	0.083385	0.869727	1.207400	-0.118408	0.540771	-0.724854	0.878563	-0.182858	-0.043494	-0.439088
35504		17.931471	-0.737035	-1.977940	-0.534386	0.202078	0.794328	-0.084229	0.586670	-0.734619	0.881716	-0.187980	-0.036374	-0.431181
35505		13.760282	-4.664132	-1.601007	-0.843960	-0.206431	0.513991	-0.072021	0.636963	-0.726074	0.882325	-0.198585	-0.032776	-0.425433
35506		3.941583	-0.439164	-2.916914	3.032570	-2.212105	-0.874930	-0.135254	0.602051	-0.775391	0.883270	-0.176321	-0.075331	-0.427866
35507		6.342153	10.701790	18.820242	1.028636	-3.297730	-0.506930	-0.236816	0.610840	-0.805908	0.878893	-0.181957	-0.118196	-0.424816
35508		14.776711	-0.851334	12.802117	0.018376	-2.777185	-0.899001	-0.322266	0.633057	-0.800781	0.869480	-0.195026	-0.150683	-0.428093
35509		9.587525	-2.056880	10.643410	0.267111	-1.655867	-0.152315	-0.353027	0.645020	-0.808105	0.866016	-0.200632	-0.170383	-0.425127
35510		8.058602	-2.721293	8.984488	0.345916	-0.813673	-0.331331	-0.399902	0.646484	-0.811279	0.863344	-0.200470	-0.181793	-0.425911
35511		6.840910	-4.722286	8.134826	0.780574	-0.111098	-0.358710	-0.417969	0.628662	-0.823730	0.863104	-0.191793	-0.187986	-0.427701
35512		5.854501	-0.187342	9.195846	0.663408	0.185561	-0.231629	-0.407227	0.611572	-0.827881	0.863878	-0.183077	-0.190031	-0.429053
35513		4.311791	0.348311	9.192771	0.062957	0.023104	0.049375	-0.413086	0.615234	-0.835938	0.864361	-0.182375	-0.189960	-0.428409
35514		4.866319	-0.541008	8.749142	-0.303371	-0.126361	0.231742	-0.406982	0.616211	-0.828125	0.864618	-0.186858	-0.189122	-0.426326
35515		5.071045	-1.983102	8.268974	-0.491094	-0.174098	0.306481	-0.411865	0.642334	-0.822266	0.864684	-0.193791	-0.187617	-0.423752
35516		4.777505	-3.116027	8.077687	-0.304361	-0.131076	0.157217	-0.418945	0.649414	-0.820068	0.864480	-0.198121	-0.186992	-0.422441
35517		4.730463	-1.949600	8.291334	-0.133349	-0.125457	0.065855	-0.410645	0.657715	-0.812012	0.864219	-0.200360	-0.187433	-0.421723
35518		4.648266	-1.380979	8.434061	-0.154077	-0.184186	0.096378	-0.418457	0.660400	-0.810791	0.863923	-0.203201	-0.188322	-0.420574
35519		4.839153	-1.890711	8.147407	-0.164126	-0.205933	0.094517	-0.419189	0.665283	-0.809082	0.863529	-0.206258	-0.189394	-0.419411
35520		5.050251	-2.541004	7.909787	-0.047957	-0.120722	0.006532	-0.419434	0.670410	-0.804688	0.863169	-0.207403	-0.190382	-0.419139
35521		5.010421	-1.979044	8.092042	0.013023	-0.031074	-0.044681	-0.427979	0.674805	-0.805664	0.862911	-0.207300	-0.190855	-0.419506
35522		4.896399	-1.861231	8.158589	-0.020895	0.009530	-0.050902	-0.422607	0.674561	-0.806396	0.862630	-0.207335	-0.190728	-0.420125
35523		4.823419	-1.973706	8.146209	-0.027229	0.026105	-0.064048	-0.427246	0.668457	-0.803223	0.862301	-0.207318	-0.190424	-0.420945
35524		4.845570	-1.888779	8.188279	-0.039762	0.018236	-0.059834	-0.430176	0.676270	-0.802246	0.861943	-0.207489	-0.190127	-0.421729
35525		4.848643	-1.720790	8.252129	-0.101504	-0.011180	-0.040197	-0.436279	0.679688	-0.797852	0.861456	-0.208525	-0.189770	-0.422372
35526		4.766808	-1.965886	8.269237	-0.136318	-0.051433	-0.027750	-0.438965	0.674072	-0.804443	0.860847	-0.210177	-0.189629	-0.422859
35527		4.720064	-2.207012	8.158893	-0.133657	-0.129305	-0.031134	-0.440674	0.678467	-0.802246	0.860038	-0.212203	-0.190348	-0.423170
35528		4.658070	-2.007088	8.258690	-0.100534	-0.226370	-0.043737	-0.437988	0.683838	-0.796143	0.859012	-0.214354	-0.192318	-0.423278
35529		4.565681	-1.892372	8.419143	-0.170460	-0.402278	-0.002011	-0.460205	0.688721	-0.785156	0.857580	-0.218282	-0.195691	-0.422628
35530		4.366000	-2.213481	8.525786	-0.205425	-0.653890	-0.021480	-0.474365	0.692871	-0.784912	0.855290	-0.223854	-0.201618	-0.421566
35531		4.308714	-2.737523	8.601176	-0.160666	-1.018875	-0.138415	-0.501953	0.701416	-0.770752	0.851487	-0.230548	-0.211984	-0.420572
35532		4.373871	-2.920846	8.779225	-0.025653	-1.514204	-0.320640	-0.535889	0.696045	-0.751709	0.845572	-0.237862	-0.228798	-0.419621
35533		4.182626	-2.719384	9.191457	0.098092	-2.266523	-0.480486	-0.595947	0.694580	-0.733887	0.836525	-0.247210	-0.254543	-0.417518
35534		4.073872	-1.891706	9.532154	0.099308	-3.296269	-0.577312	-0.681152	0.670654	-0.689209	0.822622	-0.261286	-0.291021	-0.412709
35535		4.233184	-2.001119	9.578331	-0.000263	-4.543157	-0.683426	-0.772705	0.672119	-0.616211	0.801247	-0.281764	-0.339398	-0.404254
35536		4.885648	-3.852146	9.441784	0.098757	-5.924227	-1.068748	-0.908447	0.643799	-0.518799	0.768850	-0.305320	-0.401904	-0.392583
35537		10.869665	-5.483887	11.288636	0.508859	-7.210483	-1.850738	-1.033691	0.591553	-0.376953	0.722246	-0.325122	-0.478824	-0.378661
35538		14.805113	-4.602416	11.781664	0.459681	-7.602676	-2.553165	-1.139404	0.489502	-0.204590	0.663031	-0.339979	-0.557382	-0.366236
35539		10.655387	-2.598286	10.684482	0.137707	-7.394659	-2.682036	-1.181396	0.389648	-0.023438	0.596782	-0.352315	-0.627793	-0.354402
35540		12.448966	-1.978697	12.229320	-1.663556	-6.716159	-2.090000	-1.186279	0.306152	0.166016	0.525233	-0.376595	-0.676992	-0.352121
35541		24.279901	-11.639748	24.036181	-2.956026	-1.035869	-0.422384	-1.132324	0.236816	0.184814	0.500377	-0.396692	-0.672108	-0.374872
35542		4.356469	-10.771327	12.199296	0.230834	3.805017	0.490722	-1.065186	0.221680	0.059082	0.535296	-0.381117	-0.645987	-0.388470
35543		0.546910	0.531274	7.318376	0.315059	4.453104	0.830993	-0.986572	0.216797	-0.088379	0.576005	-0.363524	-0.612496	-0.401144
35544		0.404663	-0.414042	6.685330	-1.285464	4.533303	1.175744	-0.904297	0.232666	-0.201416	0.609770	-0.358409	-0.566697	-0.422586
35545		2.305936	-4.478814	7.519763	-0.763018	5.039346	1.190816	-0.778320	0.231445	-0.310059	0.647074	-0.345295	-0.517447	-0.440811
35546		4.386442	-0.895943	8.690093	0.044695	5.774399	1.474583	-0.652832	0.207764	-0.381348	0.690954	-0.321715	-0.462917	-0.452537
35547		3.383999	2.713083	7.898623	-0.894821	6.156178	1.745811	-0.551025	0.199463	-0.433350	0.730582	-0.303668	-0.395880	-0.466171
35548		5.369903	0.274827	7.613817	-1.918479	5.437587	1.551298	-0.488281	0.208496	-0.469971	0.757186	-0.296290	-0.327746	-0.481107
35549		10.426250	-3.975847	11.131979	-1.197757	4.973162	1.236465	-0.416504	0.207520	-0.507812	0.778881	-0.282082	-0.267848	-0.491968
35550		17.029794	-4.905401	13.867697	-0.973224	4.652982	1.545002	-0.348633	0.198975	-0.550537	0.798953	-0.267486	-0.210243	-0.495907
35551		23.271006	-13.243106	10.665862	-0.290896	4.746268	2.780259	-0.270020	0.212646	-0.630127	0.825717	-0.247552	-0.150918	-0.483873
35552		21.347916	-6.899782	6.902672	1.316036	4.468311	4.392583	-0.108398	0.246338	-0.708252	0.862050	-0.214376	-0.098401	-0.448586
35553		20.380422	1.741201	6.192867	0.289368	3.747939	4.853271	0.081543	0.288574	-0.706055	0.892036	-0.195518	-0.046095	-0.404871
35554		21.947265	1.509122	-0.570705	1.276087	3.230668	2.768628	0.206543	0.272705	-0.674561	0.909599	-0.166178	-0.009456	-0.380691
35555		21.321345	8.279508	-6.277763	0.074856	2.100593	0.269340	0.256104	0.271973	-0.641846	0.910927	-0.155263	0.014837	-0.381949
35556		18.183344	3.655706	-7.191767	-2.011949	0.382974	-1.343506	0.229492	0.325684	-0.606445	0.900084	-0.176490	0.026342	-0.397501
35557		13.856596	-10.052046	-4.334453	-0.378910	-0.947564	-1.805222	0.169678	0.351074	-0.599121	0.890272	-0.185990	0.013681	-0.415495
35558		1.113982	-1.836142	8.434964	3.525319	-2.765426	-2.263448	0.077148	0.297363	-0.648682	0.885439	-0.161192	-0.040584	-0.434013
35559		2.665179	3.832088	10.420482	2.418248	-3.736948	-0.664253	-0.047119	0.242676	-0.671143	0.883423	-0.154137	-0.096235	-0.431908
35560		14.382658	8.161274	13.506766	0.756559	-3.831743	-0.306163	-0.157471	0.220947	-0.661377	0.877574	-0.165919	-0.143016	-0.426475
35561		11.627419	-0.336415	11.773563	0.021827	-2.731639	-0.408455	-0.239014	0.215820	-0.648438	0.870051	-0.179401	-0.173806	-0.424992
35562		12.573793	-2.832794	11.154335	0.570439	-1.214679	-0.549107	-0.278564	0.191895	-0.635986	0.865647	-0.178418	-0.191217	-0.426916
35563		7.727076	-3.371557	9.172822	0.743540	-0.059462	-0.489226	-0.298584	0.175537	-0.640869	0.864519	-0.169504	-0.196889	-0.430244
35564		4.967998	-0.324442	9.083596	0.437737	0.207419	-0.334812	-0.287842	0.165771	-0.652588	0.864156	-0.162828	-0.197691	-0.433174
35565		4.750965	0.872179	9.149926	0.001095	0.019468	-0.161122	-0.298096	0.158691	-0.644043	0.863354	-0.162308	-0.197800	-0.434914
35566		4.886678	-0.128561	8.755837	-0.231338	-0.157536	0.010680	-0.296143	0.168945	-0.648682	0.862568	-0.165678	-0.198205	-0.435018
35567		5.109233	-2.078885	8.169614	-0.247042	-0.187250	0.017945	-0.306152	0.171631	-0.647217	0.861703	-0.169393	-0.198829	-0.435018
35568		5.046183	-1.695102	8.194726	-0.099411	-0.132426	-0.045391	-0.302979	0.167969	-0.635986	0.860934	-0.171061	-0.199797	-0.435444
35569		4.754549	-0.601525	8.576017	-0.151812	-0.173041	0.039657	-0.305908	0.177490	-0.634766	0.860410	-0.173727	-0.200735	-0.434994
35570		4.866948	-1.053173	8.385312	-0.278063	-0.268914	0.124137	-0.313232	0.185791	-0.633301	0.859813	-0.178479	-0.201831	-0.433740
35571		4.967263	-1.618558	8.133421	-0.269887	-0.265506	0.110622	-0.322998	0.177734	-0.625732	0.859149	-0.183085	-0.202960	-0.432609
35572		5.101347	-1.296817	8.172362	-0.290843	-0.254761	0.135657	-0.325195	0.194092	-0.628418	0.858577	-0.187917	-0.203798	-0.431276
35573		5.017821	-1.604044	8.172970	-0.292816	-0.234621	0.140926	-0.323242	0.196777	-0.617676	0.858057	-0.192670	-0.204393	-0.429930
35574		5.169424	-2.126076	7.956421	-0.161762	-0.188793	0.045914	-0.333252	0.190918	-0.619629	0.857444	-0.195525	-0.205426	-0.429371
35575		5.200715	-1.701097	7.999748	-0.092295	-0.127993	-0.017502	-0.334961	0.204102	-0.613281	0.856811	-0.197146	-0.206334	-0.429458
35576		5.071763	-1.373738	8.143084	-0.094918	-0.114595	-0.019392	-0.334717	0.204346	-0.610352	0.856193	-0.198717	-0.207088	-0.429604
35577		5.125021	-1.481791	8.111531	-0.124043	-0.144597	-0.007949	-0.340820	0.205078	-0.607666	0.855481	-0.200789	-0.207978	-0.429628
35578		5.024336	-1.724039	8.168055	-0.123669	-0.193943	-0.016307	-0.351074	0.210938	-0.605957	0.854591	-0.203098	-0.209417	-0.429615
35579		4.989846	-1.787393	8.168908	-0.114766	-0.283071	-0.037221	-0.343018	0.208740	-0.602051	0.853368	-0.205733	-0.211907	-0.429572
35580		5.016211	-1.487330	8.234523	-0.114253	-0.411795	-0.033704	-0.364990	0.211914	-0.595459	0.851806	-0.209057	-0.215758	-0.429151
35581		4.806216	-1.637207	8.505794	-0.135975	-0.654486	-0.017497	-0.378174	0.217529	-0.589355	0.849577	-0.213947	-0.222022	-0.427963
35582		4.844844	-1.802259	8.564442	-0.141153	-1.017144	-0.042451	-0.399170	0.216064	-0.574707	0.846094	-0.220735	-0.232149	-0.426038
35583		4.835556	-2.276634	8.524806	-0.062910	-1.446333	-0.137047	-0.437744	0.212891	-0.557861	0.840869	-0.228649	-0.247433	-0.423600
35584		4.856046	-2.177673	8.758104	0.024582	-2.005697	-0.232851	-0.480713	0.218506	-0.531738	0.833251	-0.238196	-0.269209	-0.420098
35585		4.396695	-2.228552	9.130391	0.089124	-2.880927	-0.328831	-0.558350	0.215332	-0.501709	0.821566	-0.251106	-0.300455	-0.414369
35586		4.529989	-1.652417	9.485393	0.125591	-4.048013	-0.516606	-0.650879	0.205566	-0.460205	0.803039	-0.268481	-0.343857	-0.405966
35587		4.678690	-2.474376	9.379876	-0.020938	-5.410654	-0.740921	-0.758789	0.202881	-0.355225	0.774127	-0.292286	-0.399665	-0.394416
35588		9.548793	-4.236999	10.770564	0.144493	-6.740449	-1.251414	-0.897461	0.195557	-0.215088	0.732050	-0.316728	-0.468570	-0.379774
35589		14.950290	-3.492136	11.179053	0.234155	-7.211877	-1.771922	-1.007812	0.168457	-0.057617	0.679284	-0.337012	-0.540505	-0.364486
35590		13.165504	-2.651741	11.264255	0.132883	-6.973942	-1.990406	-1.091309	0.149902	0.104736	0.621002	-0.352771	-0.606326	-0.349683
35591		11.784857	-2.539026	10.939494	-1.185919	-5.935959	-1.784230	-1.143799	0.135498	0.256348	0.561190	-0.373257	-0.653063	-0.345332
35592		21.500696	-4.190212	22.587301	-2.869655	-1.229435	-1.279655	-1.183105	0.132812	0.248535	0.531841	-0.387898	-0.654572	-0.371774
35593		3.921554	-8.146090	11.502155	-1.258855	2.954552	-1.012963	-1.197998	0.149902	0.123291	0.544837	-0.373914	-0.633230	-0.402942
35594		1.157547	-2.547251	7.165985	-0.456620	3.483921	-0.664816	-1.158447	0.176514	-0.045166	0.566491	-0.353862	-0.609458	-0.427119
35595		1.392495	-2.934511	6.839444	-0.891943	3.929698	0.079443	-1.075928	0.227783	-0.201416	0.592282	-0.339374	-0.575504	-0.450358
35596		1.992010	-6.179077	6.786172	-0.196779	4.448552	0.806162	-0.918701	0.271484	-0.343506	0.627117	-0.321063	-0.536859	-0.464139
35597		3.404597	-2.957736	7.407917	0.580169	5.045524	1.671993	-0.724854	0.306641	-0.440674	0.671657	-0.297767	-0.492487	-0.466549
35598		1.721605	0.522413	5.576618	-0.332602	5.241181	2.379171	-0.514893	0.308350	-0.448242	0.714850	-0.283868	-0.436119	-0.467127
35599		6.081723	-2.914986	6.413868	-1.050479	4.455528	2.653074	-0.380859	0.311523	-0.403076	0.749372	-0.281054	-0.379487	-0.464154
35600		9.102048	-3.276404	10.397161	-0.139288	4.435866	2.674928	-0.319336	0.287109	-0.385742	0.783891	-0.268687	-0.326599	-0.454593
35601		13.770739	-3.931283	11.570741	-0.283524	4.473404	2.412777	-0.253662	0.313965	-0.415771	0.813332	-0.255303	-0.272042	-0.446435
35602		18.935502	-10.170815	11.278881	0.607759	4.619127	2.497428	-0.165283	0.319824	-0.469482	0.843129	-0.231229	-0.219564	-0.432965
35603		18.464662	-11.589799	7.915331	2.010910	4.806792	3.552142	-0.024658	0.291504	-0.533447	0.878699	-0.193024	-0.168528	-0.402775
35604		17.580725	-10.004094	6.417139	2.663482	4.150412	4.852037	0.121338	0.240967	-0.571777	0.914960	-0.152371	-0.123734	-0.352592
35605		17.409111	-2.086941	5.939216	2.211182	3.295549	5.710377	0.255127	0.176758	-0.576904	0.945935	-0.120822	-0.084191	-0.289001
35606		19.591143	-3.803750	-0.117430	1.519592	2.428058	4.375356	0.341797	0.107422	-0.577393	0.964551	-0.098428	-0.053939	-0.238841
35607		19.829912	6.491316	-3.311689	-0.307271	1.384827	1.757773	0.392334	0.092041	-0.558594	0.969964	-0.099155	-0.033928	-0.219516
35608		17.294444	-3.257365	-5.883470	-2.510121	0.422568	0.462541	0.403564	0.134766	-0.536377	0.967788	-0.128579	-0.021169	-0.215418
35609		12.609238	-7.307289	-3.721728	0.389405	-0.847480	0.399999	0.393555	0.123779	-0.554443	0.969186	-0.126281	-0.031716	-0.209106
35610		-0.634076	-3.999684	-2.488017	0.501933	-3.306441	0.284620	0.326660	0.115479	-0.583496	0.968561	-0.128907	-0.072522	-0.200032
35611		10.338061	5.426788	17.339638	0.032659	-4.499147	-0.120844	0.232666	0.105713	-0.614990	0.962710	-0.139512	-0.127052	-0.193864
35612		13.010041	5.837754	13.793180	-1.248730	-3.628849	-0.629590	0.157227	0.139648	-0.609863	0.952118	-0.162201	-0.168570	-0.196842
35613		13.122864	-9.055314	9.870647	-1.138387	-2.677734	-0.373076	0.109619	0.152588	-0.616211	0.942616	-0.181456	-0.198241	-0.198115
35614		9.614156	-6.487170	8.582095	0.390320	-1.238327	-0.475184	0.067383	0.152344	-0.620605	0.939118	-0.178749	-0.214835	-0.199882
35615		6.975798	-5.427921	8.478772	0.931227	-0.487598	-0.570468	0.064941	0.132080	-0.626709	0.938361	-0.167522	-0.224135	-0.202925
35616		6.569647	-0.708183	9.318853	0.656790	-0.080938	-0.395898	0.052734	0.108643	-0.629883	0.938465	-0.158949	-0.227573	-0.205498
35617		5.846694	-0.593515	8.920764	0.013853	-0.056916	-0.048911	0.052490	0.115723	-0.627197	0.938207	-0.158832	-0.228379	-0.205872
35618		5.382868	-1.612521	8.477061	-0.362972	-0.091819	0.172671	0.049561	0.120117	-0.625732	0.937658	-0.163850	-0.228183	-0.204655
35619		5.336155	-2.596312	8.185548	-0.507183	-0.077579	0.264047	0.050537	0.127686	-0.631348	0.937049	-0.170774	-0.227256	-0.202804
35620		5.762399	-2.465165	8.077307	-0.428930	0.099574	0.263533	0.059570	0.132324	-0.619141	0.937065	-0.176324	-0.224444	-0.201105
35621		5.009340	-1.933607	8.256954	-0.425467	0.271208	0.309574	0.065430	0.145264	-0.611084	0.937640	-0.181524	-0.219521	-0.199227
35622		3.934058	-2.509332	8.070359	-0.417197	0.208928	0.285584	0.074951	0.157959	-0.616943	0.937953	-0.186706	-0.215392	-0.197460
35623		4.469358	-2.902661	7.911730	-0.336393	0.173783	0.198179	0.084473	0.163330	-0.606934	0.938110	-0.190785	-0.212069	-0.196414
35624		4.200970	-2.976108	7.895488	-0.225418	0.163939	0.091387	0.086670	0.166992	-0.606445	0.938222	-0.193301	-0.209383	-0.196299
35625		4.376387	-2.828337	7.933000	-0.125000	0.096049	0.026890	0.078125	0.168457	-0.600342	0.938233	-0.194635	-0.207892	-0.196513
35626		3.998101	-2.667977	7.944525	-0.098017	0.038685	0.006972	0.083496	0.165771	-0.602539	0.938108	-0.195742	-0.207188	-0.196751
35627		4.328119	-2.919298	7.947143	-0.063273	-0.078504	-0.035182	0.086914	0.174561	-0.597656	0.937660	-0.196618	-0.208045	-0.197109
35628		4.341576	-3.320683	7.726237	0.075927	-0.115534	-0.117321	0.077393	0.176025	-0.597412	0.937253	-0.195740	-0.209879	-0.197976
35629		4.937370	-2.975829	8.123008	0.175434	-0.099419	-0.175447	0.077637	0.166504	-0.604248	0.936980	-0.193502	-0.211910	-0.199299
35630		4.748404	-2.990211	7.940087	0.192052	-0.015965	-0.187777	0.068359	0.165527	-0.603516	0.936927	-0.190827	-0.213033	-0.200923
35631		4.715145	-3.061698	7.937665	0.338241	0.031837	-0.262853	0.078125	0.158691	-0.604004	0.937143	-0.186116	-0.214137	-0.203146
35632		4.847982	-2.678244	7.986608	0.406276	0.095050	-0.286034	0.073242	0.152588	-0.611084	0.937597	-0.180379	-0.214720	-0.205597
35633		4.092673	-2.781662	7.783056	0.503395	0.085835	-0.345505	0.066406	0.133057	-0.619873	0.938047	-0.173358	-0.215783	-0.208453
35634		4.103042	-2.280430	8.254189	0.600734	-0.035883	-0.416535	0.066406	0.123291	-0.626709	0.938128	-0.165310	-0.218664	-0.211600
35635		4.665912	-1.219169	8.623759	0.469051	-0.136656	-0.327720	0.064697	0.112305	-0.631104	0.937834	-0.159302	-0.222176	-0.213842
35636		4.642988	-1.309877	8.801188	0.123755	-0.295977	-0.149519	0.051758	0.115967	-0.624512	0.936852	-0.158253	-0.226269	-0.214632
35637		4.826533	-1.701627	8.650597	-0.057840	-0.463467	-0.053417	0.046631	0.119873	-0.633301	0.935270	-0.160044	-0.231639	-0.214475
35638		4.440904	-1.553541	8.952001	-0.153842	-0.647623	-0.014725	0.031982	0.124268	-0.628662	0.933018	-0.163553	-0.238814	-0.213767
35639		3.924187	-1.666072	9.485987	-0.339591	-1.080874	-0.079159	0.004639	0.134766	-0.622559	0.928795	-0.170167	-0.250642	-0.213453
35640		3.534160	-2.960532	9.835945	-0.390882	-1.895230	-0.248581	-0.037598	0.147461	-0.617920	0.921091	-0.178947	-0.272041	-0.213453
35641		3.195963	-3.310366	10.056247	-0.132929	-3.025137	-0.451024	-0.092529	0.142578	-0.609375	0.908640	-0.186894	-0.307297	-0.212162
35642		3.555811	-5.106694	9.764354	0.325143	-4.388110	-0.743938	-0.197998	0.134766	-0.583984	0.889180	-0.191696	-0.359202	-0.208772
35643		5.965648	-6.072401	9.723764	1.006500	-5.476422	-1.518851	-0.312744	0.100586	-0.555908	0.860772	-0.187493	-0.425301	-0.207453
35644		11.525563	-7.416526	10.911655	1.904460	-5.681260	-2.541545	-0.445068	0.040527	-0.512939	0.825667	-0.167631	-0.495786	-0.210644
35645		13.435548	-8.634643	9.559946	2.907395	-4.866636	-2.912655	-0.548584	-0.048584	-0.473389	0.791397	-0.131902	-0.558070	-0.211779
35646		11.828666	-11.103653	14.760487	4.563160	-2.981303	-1.388706	-0.612061	-0.142090	-0.440186	0.772578	-0.084694	-0.600441	-0.188203
35647		4.887164	-6.722675	12.447841	4.033621	-0.661304	2.356547	-0.620850	-0.170898	-0.439209	0.776183	-0.064879	-0.612660	-0.134088
35648		-0.039900	-3.775971	7.717715	3.077448	0.061106	3.159066	-0.625000	-0.171143	-0.446289	0.783379	-0.059059	-0.613585	-0.079649
35649		1.672632	-4.155896	7.706172	3.184455	0.789251	2.558312	-0.617432	-0.182129	-0.465820	0.793399	-0.046687	-0.606138	-0.030573
35650		2.127174	-4.763147	7.839222	3.548012	1.870667	2.044732	-0.591553	-0.205566	-0.508057	0.809302	-0.026270	-0.586597	0.015619
35651		1.274448	-5.731720	6.201498	3.504714	2.656995	1.974780	-0.551270	-0.240723	-0.550049	0.828215	-0.005844	-0.557107	0.060470
35652		2.151983	-8.875363	5.531769	3.159175	2.737912	1.825272	-0.507568	-0.281738	-0.600586	0.844923	0.012006	-0.525098	0.101158
35653		6.390268	-13.205123	5.585228	2.814230	3.102383	1.916358	-0.440918	-0.310547	-0.637939	0.861169	0.025107	-0.487935	0.140277
35654		7.196115	-17.795582	2.512820	2.702931	3.102494	2.804407	-0.367188	-0.331055	-0.661621	0.872769	0.031489	-0.449467	0.187783
35655		9.043018	-18.930690	2.337663	3.140990	2.418178	4.238692	-0.311523	-0.359863	-0.682129	0.872961	0.036031	-0.415931	0.252274
35656		10.547296	-17.453741	3.681130	3.257007	1.941784	5.514112	-0.287842	-0.380371	-0.682617	0.861211	0.036475	-0.385236	0.329514
35657		11.538560	-15.931162	3.572672	3.611934	1.748883	5.966887	-0.268066	-0.419434	-0.666260	0.839968	0.039064	-0.352438	0.410750
35658		11.697481	-15.256574	2.745683	3.689562	1.479624	5.996670	-0.267578	-0.456299	-0.644043	0.810513	0.043394	-0.319208	0.489175
35659		13.408756	-15.625113	2.244384	3.409205	1.106134	6.272495	-0.262695	-0.473877	-0.628906	0.771412	0.045713	-0.289008	0.565073
35660		13.355247	-13.894634	1.369182	2.814423	0.692571	6.410790	-0.296631	-0.478271	-0.613037	0.724016	0.044361	-0.264761	0.635401
35661		14.200808	-8.481294	1.827028	1.497657	0.347102	5.756560	-0.318359	-0.465820	-0.605713	0.676546	0.035722	-0.251958	0.691032
35662		13.535182	-8.736580	-0.243265	0.606105	0.342453	3.990079	-0.336182	-0.433105	-0.603271	0.641935	0.025022	-0.245087	0.726103
35663		13.950167	-6.583399	-2.829775	0.557087	0.087078	1.872709	-0.336914	-0.429932	-0.593506	0.624749	0.022709	-0.239685	0.742781
35664		16.740480	-4.333679	-4.481683	0.878069	-0.321858	0.220235	-0.346924	-0.441650	-0.582764	0.621375	0.031661	-0.233973	0.747093
35665		18.593050	3.981995	-7.898873	1.039215	-2.091238	-0.603026	-0.379395	-0.469482	-0.546143	0.620153	0.060807	-0.240088	0.744359
35666		18.055738	5.926572	17.404773	-0.275917	-2.532007	-0.517180	-0.421143	-0.471436	-0.534424	0.617237	0.083594	-0.261716	0.737249
35667		5.467881	-4.369839	8.758432	-0.464852	-0.908708	-1.157413	-0.437500	-0.471680	-0.522949	0.625314	0.092045	-0.271700	0.725734
35668		7.399318	-7.412100	8.276679	0.647320	-0.966160	-0.567838	-0.445312	-0.493408	-0.507324	0.626371	0.107680	-0.272641	0.722309
35669		7.403923	-3.181123	8.831578	0.449739	-0.334628	-0.231875	-0.444092	-0.502686	-0.493652	0.626715	0.114903	-0.270843	0.721575
35670		5.551610	-4.044757	7.986075	0.468140	-0.086459	-0.279567	-0.445068	-0.517090	-0.495605	0.628272	0.120192	-0.266855	0.720844
35671		5.685299	-1.345286	8.646800	0.323655	0.011683	-0.209625	-0.443115	-0.521729	-0.489502	0.629722	0.123224	-0.263497	0.720302
35672		4.897948	-1.418285	8.672914	0.030891	-0.087781	-0.053070	-0.444092	-0.516113	-0.487793	0.629881	0.124334	-0.263794	0.719864
35673		5.331177	-2.188778	8.049119	-0.095890	-0.162615	-0.015202	-0.452637	-0.521484	-0.484131	0.629649	0.124996	-0.265875	0.719186
35674		5.390391	-2.145547	8.058958	-0.126134	-0.134161	0.037729	-0.449463	-0.523438	-0.489746	0.629080	0.124991	-0.268085	0.718864
35675		5.215290	-2.565164	7.889326	-0.116975	-0.080939	0.005106	-0.455322	-0.519775	-0.486328	0.628967	0.124691	-0.269742	0.718395
35676		5.122025	-2.103311	8.020343	-0.099115	-0.036969	0.007574	-0.446045	-0.516113	-0.483643	0.628952	0.124128	-0.270896	0.718072
35677		5.035484	-2.221836	8.033505	-0.120718	-0.070108	0.041287	-0.460693	-0.514160	-0.490967	0.628555	0.123581	-0.272555	0.717886
35678		5.085633	-2.564335	7.863949	-0.092507	-0.058623	0.024378	-0.454834	-0.512939	-0.484375	0.628305	0.123212	-0.273843	0.717679
35679		5.094998	-2.524355	7.861079	-0.033445	-0.022891	-0.012923	-0.452881	-0.513184	-0.489990	0.628420	0.123114	-0.274262	0.717434
35680		5.182595	-2.218866	7.911427	-0.026756	-0.018720	-0.001004	-0.453613	-0.520996	-0.490234	0.628433	0.122991	-0.274607	0.717312
35681		5.119134	-2.052334	7.891945	-0.039638	0.010883	0.028509	-0.458496	-0.508301	-0.499268	0.628303	0.122402	-0.274879	0.717422
35682		4.928275	-2.329388	7.970234	-0.055975	0.001651	0.054743	-0.455811	-0.511963	-0.499756	0.627932	0.121679	-0.275410	0.717666
35683		5.060791	-2.379554	7.922708	-0.045150	-0.026946	0.052258	-0.458740	-0.507812	-0.485840	0.627469	0.121307	-0.276063	0.717884
35684		5.121724	-2.398492	7.804684	-0.038472	-0.008820	0.049510	-0.447754	-0.505859	-0.489502	0.627082	0.120835	-0.276509	0.718129
35685		4.959469	-2.510713	7.806198	0.005243	-0.000741	0.027507	-0.459473	-0.507324	-0.486816	0.626856	0.120710	-0.276465	0.718365
35686		4.809297	-2.227337	7.954431	0.022227	-0.043911	0.021681	-0.445801	-0.506348	-0.487793	0.626507	0.121126	-0.276598	0.718548
35687		4.450964	-2.631641	8.152500	-0.009848	-0.185275	0.042041	-0.449951	-0.500244	-0.487305	0.625534	0.122491	-0.278155	0.718563
35688		4.327783	-2.931829	8.230695	0.062858	-0.385380	-0.056957	-0.468506	-0.509277	-0.475342	0.624634	0.126564	-0.280467	0.717741
35689		4.455660	-2.409589	8.683120	0.103463	-0.716703	-0.185082	-0.476074	-0.517090	-0.478271	0.623623	0.134367	-0.284783	0.715499
35690		4.318187	-2.355015	8.980917	0.090151	-1.212773	-0.253887	-0.491455	-0.511475	-0.453369	0.621382	0.146726	-0.292920	0.711726
35691		4.473680	-2.978825	9.081683	0.177180	-1.900701	-0.387083	-0.523438	-0.522949	-0.435791	0.617391	0.166305	-0.305256	0.705683
35692		4.261068	-3.802841	8.888629	0.327669	-2.644009	-0.656703	-0.548584	-0.530518	-0.388184	0.612086	0.194480	-0.321167	0.695974
35693		4.455967	-4.012462	8.669969	0.598218	-3.548136	-0.999587	-0.605957	-0.556641	-0.330566	0.604454	0.233629	-0.340265	0.681375
35694		5.632742	-4.351616	8.558415	1.123280	-4.484210	-1.489593	-0.643066	-0.594238	-0.260498	0.593716	0.286098	-0.359528	0.660597
35695		7.433096	-5.599570	8.516808	1.969957	-5.370429	-2.335212	-0.670898	-0.654053	-0.139160	0.580098	0.354550	-0.373617	0.631023
35696		12.057935	-5.663415	11.184985	3.136075	-5.998132	-3.326661	-0.675293	-0.733643	0.008545	0.561913	0.438349	-0.375902	0.592285
35697		13.443729	-3.550962	11.061872	3.002533	-6.089757	-3.403184	-0.651123	-0.804443	0.145996	0.539582	0.518325	-0.376036	0.546614
35698		15.144346	-7.277044	11.882052	3.140766	-5.781058	-3.057544	-0.600342	-0.856445	0.285645	0.510814	0.591053	-0.372144	0.501233
35699		19.253161	-9.122424	19.526620	3.051739	-3.175395	-0.913625	-0.583252	-0.862061	0.379150	0.478474	0.633618	-0.365888	0.485507
35700		5.805485	-9.044841	14.126297	2.124337	0.549735	2.432618	-0.625244	-0.826904	0.404541	0.449046	0.631190	-0.368576	0.513914
35701		1.443558	-0.797410	10.074380	1.432789	1.228448	2.607711	-0.665527	-0.777832	0.403076	0.426327	0.618651	-0.372652	0.544653
35702		2.139703	-1.286051	9.594457	0.206000	2.312848	1.907010	-0.703125	-0.743652	0.364746	0.422261	0.594502	-0.373296	0.573510
35703		2.190785	-3.083051	8.589651	0.029418	3.548288	1.098561	-0.724609	-0.732666	0.305664	0.430300	0.563254	-0.361999	0.605428
35704		3.945257	-3.938924	8.170060	0.067787	4.660204	0.927140	-0.732178	-0.721436	0.210938	0.443155	0.522950	-0.342191	0.642683
35705		5.341304	-4.759811	7.762741	0.111841	5.605956	1.242452	-0.739502	-0.695557	0.112793	0.455288	0.471650	-0.317366	0.685229
35706		4.559443	-2.428509	6.538087	-0.319386	6.078456	1.671543	-0.720215	-0.672119	0.020752	0.465543	0.409438	-0.294266	0.727350
35707		6.508561	-2.915729	7.158044	-1.503241	5.581241	1.568389	-0.710693	-0.635742	-0.086426	0.478180	0.342778	-0.282536	0.757642
35708		12.290531	-7.842585	9.457083	-1.538552	5.460840	1.414463	-0.715088	-0.594238	-0.164551	0.489352	0.275683	-0.269658	0.782188
35709		16.284181	-11.335079	9.295300	-0.981021	4.899048	2.419625	-0.711182	-0.533691	-0.265381	0.484377	0.212673	-0.256869	0.808806
35710		23.908055	-14.068911	9.791000	0.319641	4.443006	4.497468	-0.700684	-0.440430	-0.343750	0.450796	0.154299	-0.237811	0.846416
35711		21.942304	0.215150	6.996005	0.683134	4.188823	6.005482	-0.668945	-0.325439	-0.418457	0.396515	0.095075	-0.217516	0.886805
35712		22.703616	1.843734	5.294762	0.885998	3.737594	4.429410	-0.624023	-0.265869	-0.478516	0.355463	0.045482	-0.193810	0.913244
35713		25.037677	1.557197	-2.194315	1.447081	3.299713	2.072451	-0.566650	-0.255127	-0.529785	0.338491	0.008927	-0.163512	0.926611
35714		22.050014	4.890622	-8.935509	-0.036976	1.712631	0.300830	-0.543457	-0.256592	-0.554199	0.338437	-0.011875	-0.156664	0.927780
35715		17.644532	-4.769199	-8.677360	-1.306142	-0.556808	-0.595836	-0.557861	-0.231689	-0.534668	0.344023	-0.009911	-0.174215	0.922605
35716		10.059162	1.791224	2.353001	2.647866	-3.224580	-1.298333	-0.615967	-0.293457	-0.484863	0.351824	0.041382	-0.157477	0.921796
35717		4.682805	3.939934	15.643093	1.345844	-3.152308	-0.298485	-0.673096	-0.319824	-0.424316	0.348081	0.084087	-0.155557	0.920636
35718		12.171190	6.547076	13.936910	-0.319714	-3.356862	-0.398325	-0.730957	-0.322754	-0.366943	0.346203	0.121951	-0.173281	0.913918
35719		8.541198	-3.082787	10.066305	-1.123662	-2.719893	0.007345	-0.767334	-0.308838	-0.317139	0.341757	0.148021	-0.197762	0.906743
35720		11.718104	-6.239744	9.899605	-0.460564	-1.676675	-0.177053	-0.783936	-0.308594	-0.283203	0.340442	0.165433	-0.209757	0.901517
35721		6.842696	-5.813377	8.215411	0.492900	-0.738660	-0.302043	-0.795654	-0.324707	-0.263672	0.340921	0.176622	-0.206708	0.899916
35722		5.717469	-1.903402	9.223483	0.682901	-0.255543	-0.310122	-0.797363	-0.342285	-0.263672	0.342277	0.183188	-0.199430	0.899731
35723		4.726796	-1.156991	9.304734	0.351960	-0.231742	-0.219043	-0.798340	-0.347656	-0.243408	0.343402	0.187834	-0.195965	0.899106
35724		5.364080	-1.342392	8.881047	0.023529	-0.223391	-0.069363	-0.799805	-0.346680	-0.235352	0.343629	0.190605	-0.196499	0.898319
35725		5.095875	-2.315304	8.404258	-0.120466	-0.211486	0.025657	-0.802734	-0.351318	-0.247559	0.343159	0.192390	-0.198822	0.897607
35726		5.091988	-2.231571	8.207971	-0.198710	-0.189203	0.084894	-0.810059	-0.339844	-0.237061	0.342263	0.193441	-0.202067	0.896998
35727		4.606448	-2.932725	7.869791	-0.112174	-0.150109	0.025417	-0.806152	-0.330566	-0.240479	0.341921	0.194572	-0.204029	0.896440
35728		4.523782	-2.371728	7.949513	0.017039	-0.161902	-0.045384	-0.807861	-0.330566	-0.232178	0.342025	0.196566	-0.204422	0.895875
35729		4.976876	-1.922319	8.214391	0.028890	-0.161254	-0.043252	-0.813477	-0.332520	-0.227539	0.342076	0.198596	-0.204684	0.895348
35730		5.080402	-2.269713	8.126486	-0.066676	-0.127141	-0.017789	-0.804443	-0.339355	-0.222412	0.342166	0.199771	-0.205930	0.894766
35731		4.989095	-2.527276	7.909449	-0.045113	-0.065849	-0.033288	-0.815186	-0.338867	-0.229980	0.342531	0.200391	-0.206635	0.894325
35732		4.787058	-2.044608	8.132693	-0.047140	-0.063693	-0.019507	-0.812744	-0.338379	-0.226318	0.342752	0.200943	-0.207388	0.893942
35733		4.922525	-2.111552	8.120904	-0.087507	-0.084179	-0.015010	-0.812500	-0.335205	-0.224609	0.342971	0.201538	-0.208689	0.893421
35734		5.010417	-2.433478	7.930549	-0.090955	-0.049792	-0.025387	-0.815430	-0.336426	-0.224365	0.343404	0.201761	-0.209854	0.892932
35735		4.829269	-2.876724	7.908526	0.001410	-0.026967	-0.078961	-0.813477	-0.333740	-0.224121	0.344260	0.202266	-0.209756	0.892511
