// Start Time: Unknown
// Update Rate: 40.0Hz
// Filter Profile: human (46.1)
// Firmware Version: 4.6.0
PacketCounter	SampleTimeFine	Acc_X	Acc_Y	Acc_Z	Gyr_X	Gyr_Y	Gyr_Z	Mag_X	Mag_Y	Mag_Z	Quat_q0	Quat_q1	Quat_q2	Quat_q3
34823		3.930879	1.135883	8.807100	-0.005915	-0.001525	-0.002998	-0.512695	0.532471	-0.679688	0.563230	-0.134746	-0.168501	-0.797636
34824		3.946171	1.130790	8.791400	-0.008664	-0.003959	-0.002674	-0.506592	0.536133	-0.668701	0.563180	-0.134841	-0.168447	-0.797667
34825		3.971872	1.155493	8.790033	-0.011359	-0.004091	-0.000453	-0.498779	0.529785	-0.675049	0.563168	-0.134955	-0.168341	-0.797678
34826		3.974796	1.115820	8.813530	-0.014425	-0.000301	0.000646	-0.512695	0.538574	-0.682373	0.563231	-0.134988	-0.168133	-0.797671
34827		3.971128	1.112716	8.804821	-0.006698	0.002570	-0.001540	-0.497314	0.538086	-0.673828	0.563234	-0.134989	-0.168033	-0.797690
34828		3.959035	1.122359	8.798085	0.000155	0.003483	-0.000461	-0.507568	0.531494	-0.670898	0.563340	-0.134870	-0.167934	-0.797657
34829		3.958551	1.094816	8.811237	0.001812	0.001347	-0.005185	-0.498535	0.535645	-0.676270	0.563293	-0.134846	-0.167958	-0.797689
34830		3.949120	1.098034	8.814435	0.009069	0.000365	-0.006058	-0.503906	0.537354	-0.673828	0.563338	-0.134705	-0.167991	-0.797674
34831		3.956609	1.140171	8.818206	0.011354	0.000670	-0.005700	-0.507080	0.529785	-0.675049	0.563350	-0.134592	-0.168076	-0.797667
34832		3.963968	1.137633	8.784238	0.009894	0.003443	-0.005068	-0.503906	0.527344	-0.672119	0.563333	-0.134486	-0.168163	-0.797678
34833		3.968022	1.123044	8.804910	0.011306	0.000090	-0.008231	-0.508789	0.522461	-0.676514	0.563285	-0.134395	-0.168299	-0.797699
34834		3.977449	1.101747	8.845113	0.021175	0.006658	-0.004706	-0.505615	0.528809	-0.674805	0.563274	-0.134197	-0.168511	-0.797695
34835		3.971091	1.120730	8.856096	0.036924	0.007598	-0.008058	-0.511719	0.530518	-0.673096	0.563297	-0.133891	-0.168827	-0.797664
34836		3.980318	1.098963	8.844045	0.052292	0.010731	-0.011924	-0.501709	0.536377	-0.673828	0.563279	-0.133498	-0.169291	-0.797644
34837		3.939010	1.160805	8.801012	0.058680	0.007798	-0.016988	-0.503662	0.528809	-0.681885	0.563295	-0.133035	-0.169771	-0.797608
34838		3.943276	1.182588	8.786519	0.057912	0.010458	-0.017390	-0.505371	0.527588	-0.680664	0.563297	-0.132512	-0.170267	-0.797587
34839		3.905029	1.188982	8.778931	0.049116	0.013328	-0.015993	-0.504395	0.527100	-0.676514	0.563289	-0.132044	-0.170672	-0.797584
34840		3.886134	1.199170	8.763848	0.033318	0.010078	-0.014524	-0.510742	0.530762	-0.676025	0.563256	-0.131726	-0.170948	-0.797601
34841		3.870936	1.219199	8.777810	0.015084	-0.000399	-0.011630	-0.504150	0.527588	-0.681396	0.563180	-0.131715	-0.171101	-0.797624
34842		3.919984	1.210648	8.802167	0.005751	-0.003970	-0.008301	-0.499512	0.525146	-0.674072	0.563148	-0.131712	-0.171171	-0.797632
34843		3.916620	1.201150	8.793792	-0.003769	-0.008169	-0.008293	-0.507812	0.524414	-0.671387	0.563089	-0.131789	-0.171196	-0.797655
34844		3.921298	1.201250	8.802442	-0.009610	-0.005381	-0.005047	-0.505859	0.529053	-0.678467	0.563004	-0.131965	-0.171169	-0.797692
34845		3.921344	1.189275	8.803630	-0.015428	-0.005746	-0.002973	-0.508545	0.531494	-0.679688	0.562982	-0.132165	-0.171029	-0.797705
34846		3.900846	1.210134	8.819672	-0.020307	-0.006732	-0.002827	-0.510498	0.527100	-0.674805	0.562950	-0.132434	-0.170836	-0.797724
34847		3.953817	1.168098	8.804188	-0.023264	-0.008366	-0.004005	-0.500244	0.526855	-0.675781	0.562849	-0.132738	-0.170677	-0.797779
34848		3.982715	1.150118	8.857973	-0.005935	-0.007006	-0.006051	-0.505127	0.526367	-0.685059	0.562828	-0.132808	-0.170648	-0.797788
34849		3.918568	1.189110	8.804693	-0.002161	-0.002289	-0.003897	-0.510010	0.531250	-0.672363	0.562839	-0.132805	-0.170630	-0.797785
34850		3.959150	1.155636	8.813797	-0.006369	-0.003673	-0.002291	-0.496826	0.531250	-0.671875	0.562815	-0.132986	-0.170569	-0.797785
34851		3.948983	1.174767	8.805231	-0.002470	0.000787	-0.004316	-0.499268	0.518799	-0.678711	0.562882	-0.132985	-0.170464	-0.797760
34852		3.919024	1.187586	8.804696	-0.002424	0.001374	-0.001787	-0.505859	0.528809	-0.672119	0.562897	-0.132885	-0.170462	-0.797766
34853		3.920480	1.168846	8.816475	-0.003388	-0.003469	-0.002930	-0.498047	0.532227	-0.681885	0.562887	-0.133007	-0.170432	-0.797759
34854		3.925969	1.156423	8.805144	-0.002790	-0.004747	-0.001554	-0.506592	0.530762	-0.672607	0.563013	-0.133015	-0.170345	-0.797688
34855		3.940338	1.164956	8.809367	-0.004373	-0.003440	-0.003535	-0.504395	0.529541	-0.680420	0.563007	-0.133156	-0.170292	-0.797680
34856		3.926390	1.167662	8.824744	-0.007596	-0.004855	-0.001326	-0.503174	0.528809	-0.676025	0.563048	-0.133241	-0.170210	-0.797654
34857		3.940831	1.152783	8.810353	-0.006921	-0.001809	-0.001141	-0.498535	0.538330	-0.676270	0.563089	-0.133309	-0.170115	-0.797634
34858		3.937800	1.150351	8.801278	-0.007619	-0.001704	-0.000150	-0.502930	0.526123	-0.681396	0.563269	-0.133405	-0.169901	-0.797537
34859		3.935004	1.142464	8.824038	-0.007354	-0.003645	-0.002900	-0.502197	0.539062	-0.675049	0.563274	-0.133413	-0.169845	-0.797544
34860		3.923352	1.142056	8.817929	-0.003918	-0.004756	-0.002959	-0.507324	0.536133	-0.671143	0.563403	-0.133556	-0.169709	-0.797457
34861		3.941343	1.151362	8.831181	-0.004976	-0.005606	-0.003645	-0.505371	0.534180	-0.670898	0.563432	-0.133776	-0.169629	-0.797417
34862		3.967426	1.127527	8.823714	-0.000121	-0.003189	-0.001977	-0.502441	0.530273	-0.682373	0.563484	-0.133907	-0.169582	-0.797368
34863		3.945705	1.158352	8.807835	0.005602	0.001178	-0.003588	-0.502441	0.530762	-0.678711	0.563554	-0.133765	-0.169580	-0.797344
34864		3.930940	1.140807	8.804578	0.002236	-0.000276	-0.002177	-0.506836	0.538574	-0.672119	0.563625	-0.133711	-0.169551	-0.797308
34865		3.941022	1.149771	8.799912	0.002549	0.000092	-0.003032	-0.500000	0.536133	-0.677979	0.563722	-0.133832	-0.169476	-0.797235
34866		3.955901	1.136517	8.847956	0.008868	-0.000263	-0.001997	-0.499023	0.535400	-0.674561	0.563887	-0.133756	-0.169441	-0.797139
34867		3.941082	1.121372	8.844429	0.019732	0.001429	-0.005875	-0.500977	0.533936	-0.681641	0.564026	-0.133607	-0.169510	-0.797051
34868		3.947231	1.139518	8.798338	0.023553	0.001566	-0.006714	-0.500244	0.531738	-0.672119	0.564148	-0.133354	-0.169641	-0.796979
34869		3.961312	1.159438	8.832810	0.029609	0.001425	-0.009736	-0.503418	0.531250	-0.674561	0.564205	-0.133160	-0.169855	-0.796925
34870		3.989300	1.113594	8.879118	0.051594	0.004587	-0.013482	-0.502441	0.531006	-0.679688	0.564245	-0.132777	-0.170296	-0.796867
34871		3.933911	1.162345	8.800321	0.064134	0.006130	-0.017806	-0.503906	0.517334	-0.674805	0.564296	-0.132220	-0.170841	-0.796807
34872		3.957460	1.187062	8.809622	0.064824	0.011171	-0.020770	-0.501221	0.520996	-0.681396	0.564119	-0.131588	-0.171509	-0.796893
34873		3.872599	1.203662	8.755476	0.057614	0.010981	-0.024174	-0.501465	0.526611	-0.678223	0.564023	-0.130939	-0.172036	-0.796955
34874		3.879907	1.247478	8.768758	0.042405	0.006149	-0.018819	-0.501953	0.526367	-0.666992	0.564025	-0.130579	-0.172356	-0.796943
34875		3.936332	1.261396	8.840286	0.027225	0.001604	-0.015891	-0.505371	0.523438	-0.680664	0.563980	-0.130557	-0.172537	-0.796940
34876		3.959044	1.183338	8.861184	0.052168	0.013558	-0.023600	-0.505371	0.526611	-0.678467	0.563898	-0.130036	-0.172966	-0.796990
34877		3.893566	1.242707	8.784554	0.059418	0.012576	-0.024560	-0.505127	0.520752	-0.681152	0.563863	-0.129559	-0.173419	-0.796993
34878		3.877492	1.312119	8.751054	0.042277	0.006357	-0.022174	-0.503662	0.521240	-0.687744	0.563756	-0.129192	-0.173796	-0.797047
34879		3.892876	1.302889	8.777656	0.017797	0.005438	-0.013411	-0.501709	0.518799	-0.677246	0.563753	-0.128930	-0.173900	-0.797069
34880		3.896399	1.288421	8.798954	-0.001420	0.003325	-0.004297	-0.499023	0.521484	-0.687256	0.563760	-0.128964	-0.173807	-0.797079
34881		3.888100	1.275335	8.782661	-0.012301	0.001374	0.002111	-0.503418	0.520508	-0.678711	0.563916	-0.128951	-0.173566	-0.797023
34882		3.872150	1.292923	8.786701	-0.025191	-0.002856	0.005431	-0.502930	0.521729	-0.675537	0.563965	-0.129247	-0.173271	-0.797004
34883		3.941541	1.276711	8.836241	-0.029247	-0.005912	0.008510	-0.496826	0.513184	-0.678223	0.564031	-0.129651	-0.172935	-0.796965
34884		3.920346	1.213454	8.830378	-0.010719	0.001798	0.003443	-0.501709	0.522949	-0.684082	0.564061	-0.129622	-0.172805	-0.796976
34885		3.910195	1.208650	8.803307	-0.002905	-0.001042	0.001378	-0.502686	0.528809	-0.678955	0.564168	-0.129626	-0.172711	-0.796921
34886		3.905872	1.220935	8.813973	0.003279	-0.003193	-0.005207	-0.496094	0.525879	-0.676758	0.564252	-0.129744	-0.172632	-0.796859
34887		3.891387	1.258375	8.783652	-0.002262	-0.005518	-0.005844	-0.502441	0.518311	-0.684326	0.564355	-0.129850	-0.172487	-0.796800
34888		3.913456	1.241399	8.819169	-0.005476	-0.008642	-0.002959	-0.497314	0.521484	-0.678467	0.564312	-0.129888	-0.172504	-0.796821
34889		3.903712	1.250240	8.811233	-0.007544	-0.008034	-0.002428	-0.499756	0.526855	-0.673584	0.564364	-0.129999	-0.172394	-0.796789
34890		3.885218	1.259029	8.806584	-0.018128	-0.011676	-0.001234	-0.506592	0.523193	-0.681152	0.564419	-0.130377	-0.172150	-0.796742
34891		3.894170	1.224672	8.807009	-0.019876	-0.014142	-0.000273	-0.504150	0.513916	-0.675537	0.564357	-0.130698	-0.172041	-0.796756
34892		3.911324	1.207077	8.791970	-0.019221	-0.016574	-0.003164	-0.507812	0.524902	-0.690186	0.564140	-0.130986	-0.172047	-0.796862
34893		3.890674	1.235484	8.796404	-0.024218	-0.017293	0.001194	-0.500977	0.526611	-0.675537	0.564135	-0.131231	-0.171926	-0.796851
34894		3.904938	1.237098	8.790809	-0.033748	-0.020086	0.003049	-0.505615	0.528076	-0.686523	0.564171	-0.131734	-0.171612	-0.796810
34895		3.936321	1.182123	8.826900	-0.036129	-0.019849	0.004423	-0.506348	0.528076	-0.672363	0.564220	-0.132125	-0.171332	-0.796771
34896		3.965594	1.174409	8.837596	-0.022564	-0.017716	0.003217	-0.503174	0.530029	-0.672119	0.564198	-0.132607	-0.171158	-0.796744
34897		3.946443	1.189875	8.821985	-0.016994	-0.016827	0.002043	-0.506592	0.518799	-0.683350	0.564241	-0.133009	-0.170986	-0.796684
34898		3.943216	1.184475	8.802643	-0.012506	-0.015357	0.002006	-0.509277	0.525146	-0.684082	0.564161	-0.133100	-0.171055	-0.796710
34899		3.945082	1.161843	8.804173	-0.016751	-0.019065	0.001734	-0.505859	0.528564	-0.676025	0.564114	-0.133331	-0.171055	-0.796705
34900		3.956942	1.170026	8.819607	-0.012938	-0.017203	0.000238	-0.512695	0.524414	-0.676758	0.564112	-0.133625	-0.170989	-0.796671
34901		3.901200	1.197409	8.785113	-0.018313	-0.017460	0.004733	-0.507080	0.533447	-0.676025	0.564006	-0.133978	-0.170982	-0.796689
34902		3.994859	1.147600	8.817804	-0.029525	-0.020127	0.006974	-0.500000	0.525146	-0.675537	0.564077	-0.134464	-0.170716	-0.796613
34903		3.962044	1.115283	8.812442	-0.018752	-0.017586	0.002317	-0.506836	0.539551	-0.675049	0.564125	-0.134676	-0.170596	-0.796569
34904		3.994021	1.139761	8.818557	-0.010295	-0.017652	0.002868	-0.506592	0.533936	-0.673828	0.564256	-0.135033	-0.170449	-0.796447
34905		3.972661	1.138306	8.805608	-0.010428	-0.015684	-0.001026	-0.513916	0.527100	-0.677734	0.564284	-0.135314	-0.170363	-0.796398
34906		3.989345	1.123068	8.790196	-0.007552	-0.011478	-0.001215	-0.501709	0.532227	-0.672852	0.564175	-0.135472	-0.170436	-0.796433
34907		3.955668	1.127143	8.802412	-0.006946	-0.012753	0.000159	-0.499756	0.530029	-0.671387	0.564269	-0.135635	-0.170339	-0.796359
34908		3.975463	1.136025	8.814792	-0.004571	-0.012991	-0.001237	-0.501465	0.532471	-0.674072	0.564344	-0.135757	-0.170279	-0.796298
34909		3.988309	1.121253	8.790263	-0.001746	-0.011099	-0.003326	-0.504639	0.531006	-0.671143	0.564425	-0.135830	-0.170235	-0.796238
34910		3.978877	1.153703	8.800834	-0.001838	-0.010546	-0.001589	-0.511230	0.539795	-0.675049	0.564452	-0.135960	-0.170221	-0.796200
34911		3.960265	1.105210	8.791782	-0.000212	-0.011270	-0.004525	-0.505615	0.525879	-0.678223	0.564486	-0.136158	-0.170203	-0.796145
34912		3.999024	1.122554	8.796006	0.001605	-0.013373	-0.001036	-0.501221	0.528320	-0.672363	0.564482	-0.136145	-0.170329	-0.796123
34913		3.989235	1.124283	8.788832	0.006292	-0.012717	-0.007001	-0.513184	0.538574	-0.680420	0.564486	-0.136143	-0.170426	-0.796100
34914		4.009751	1.117662	8.813007	0.002662	-0.007063	-0.004712	-0.495850	0.535889	-0.678467	0.564528	-0.136202	-0.170448	-0.796056
34915		4.006748	1.123853	8.771393	0.008584	-0.001762	-0.005470	-0.510742	0.526367	-0.670166	0.564748	-0.136010	-0.170373	-0.795949
34916		3.998029	1.122488	8.806322	0.009874	0.000302	-0.006363	-0.505859	0.532959	-0.668701	0.564641	-0.135963	-0.170507	-0.796004
34917		3.993918	1.124284	8.797183	0.009169	0.003852	-0.006634	-0.505371	0.540527	-0.670166	0.564667	-0.135920	-0.170491	-0.795996
34918		3.975344	1.144510	8.770664	0.007635	0.004023	-0.005438	-0.505371	0.530518	-0.672119	0.564798	-0.135928	-0.170375	-0.795926
34919		3.995124	1.130146	8.806661	0.009309	0.005613	-0.006473	-0.508057	0.532715	-0.664551	0.564819	-0.135797	-0.170381	-0.795933
34920		4.008360	1.129455	8.791208	0.012285	0.005824	-0.007132	-0.510254	0.531006	-0.668945	0.564797	-0.135790	-0.170396	-0.795946
34921		3.998618	1.116984	8.806814	0.019367	0.011713	-0.011416	-0.514404	0.528076	-0.668457	0.564736	-0.135612	-0.170492	-0.796000
34922		3.962611	1.134271	8.797787	0.019149	0.010789	-0.012303	-0.499512	0.531982	-0.679688	0.564587	-0.135468	-0.170652	-0.796095
34923		3.977049	1.149967	8.811662	0.019848	0.008960	-0.012673	-0.500000	0.537354	-0.676514	0.564689	-0.135097	-0.170693	-0.796078
34924		3.960200	1.141727	8.776979	0.017263	0.006552	-0.011523	-0.508789	0.525635	-0.675293	0.564823	-0.134873	-0.170662	-0.796027
34925		3.944938	1.159308	8.791401	0.011171	0.004364	-0.010370	-0.506104	0.529785	-0.674561	0.564734	-0.134719	-0.170771	-0.796092
34926		3.975837	1.140987	8.802657	0.009159	0.005566	-0.007293	-0.509277	0.527832	-0.675781	0.564746	-0.134600	-0.170776	-0.796104
34927		3.970539	1.143216	8.793992	0.013253	0.009237	-0.007834	-0.504639	0.531494	-0.675049	0.564719	-0.134412	-0.170843	-0.796140
34928		3.959496	1.148716	8.797641	0.016260	0.006290	-0.009678	-0.509766	0.535889	-0.675781	0.564753	-0.134236	-0.170887	-0.796136
34929		3.939715	1.156528	8.804303	0.019713	0.005470	-0.012223	-0.499023	0.532715	-0.675781	0.564759	-0.134111	-0.170970	-0.796135
34930		3.941459	1.189929	8.799931	0.012097	0.001734	-0.009224	-0.506348	0.529053	-0.680176	0.564849	-0.133977	-0.170946	-0.796099
34931		3.940631	1.155299	8.814544	0.006222	0.000470	-0.007183	-0.498291	0.524414	-0.676758	0.564859	-0.133880	-0.170971	-0.796103
34932		3.950493	1.165325	8.809663	0.004164	-0.000647	-0.006002	-0.500488	0.524902	-0.675293	0.564893	-0.133758	-0.170957	-0.796102
34933		3.962033	1.156563	8.816734	0.001497	-0.000495	-0.006201	-0.506348	0.526611	-0.675049	0.564898	-0.133696	-0.170924	-0.796116
34934		3.954993	1.155650	8.798492	0.003539	0.000342	-0.004923	-0.501953	0.532715	-0.682617	0.564879	-0.133677	-0.170929	-0.796132
34935		3.961471	1.159920	8.816546	0.011694	0.001928	-0.006631	-0.506836	0.521729	-0.671387	0.564993	-0.133502	-0.170935	-0.796079
34936		3.960843	1.163673	8.816334	0.016642	0.002096	-0.006097	-0.507568	0.531738	-0.677002	0.564918	-0.133388	-0.171100	-0.796116
34937		3.972616	1.167926	8.821852	0.019832	0.003233	-0.005886	-0.503662	0.529297	-0.675049	0.564969	-0.133257	-0.171209	-0.796078
34938		3.966521	1.163912	8.814106	0.032468	0.010013	-0.011400	-0.504639	0.525146	-0.682373	0.565007	-0.132939	-0.171393	-0.796065
34939		3.949175	1.180956	8.797745	0.031035	0.007904	-0.011308	-0.506104	0.529297	-0.674072	0.565024	-0.132553	-0.171634	-0.796065
34940		3.931085	1.183177	8.814855	0.031546	0.010909	-0.011949	-0.501953	0.527832	-0.678223	0.565032	-0.132284	-0.171807	-0.796066
34941		3.918187	1.188212	8.787665	0.030970	0.009009	-0.014519	-0.506348	0.527100	-0.674072	0.565055	-0.131951	-0.171982	-0.796068
34942		3.909862	1.225965	8.786404	0.025201	0.005463	-0.013566	-0.502441	0.533447	-0.679688	0.565006	-0.131782	-0.172145	-0.796096
34943		3.927447	1.201375	8.793091	0.017367	0.002522	-0.012063	-0.506104	0.527588	-0.674316	0.565068	-0.131658	-0.172171	-0.796066
34944		3.937662	1.223505	8.786591	0.012773	0.001330	-0.007806	-0.501221	0.524658	-0.676514	0.565059	-0.131638	-0.172219	-0.796066
34945		3.930898	1.251501	8.817343	0.006571	0.003140	-0.006178	-0.502441	0.537598	-0.666504	0.565085	-0.131567	-0.172186	-0.796066
34946		3.932002	1.212343	8.811071	0.004196	0.003381	-0.004772	-0.501465	0.526611	-0.678223	0.565180	-0.131727	-0.171999	-0.796012
34947		3.939690	1.203276	8.809237	0.007982	-0.000516	-0.006888	-0.500488	0.523682	-0.679199	0.565210	-0.131675	-0.171999	-0.796000
34948		3.943467	1.216748	8.816703	0.010694	0.003650	-0.007917	-0.508545	0.523682	-0.682373	0.565229	-0.131525	-0.172020	-0.796007
34949		3.944658	1.216249	8.795321	0.009853	0.003714	-0.007717	-0.500244	0.524170	-0.674805	0.565196	-0.131406	-0.172091	-0.796034
34950		3.929100	1.200123	8.792648	0.008548	0.005087	-0.008103	-0.502441	0.521973	-0.679199	0.565203	-0.131313	-0.172064	-0.796051
34951		3.925831	1.238534	8.831360	0.007533	0.006553	-0.006887	-0.505859	0.527588	-0.669922	0.565204	-0.131171	-0.172056	-0.796075
34952		3.953684	1.187043	8.879614	0.018080	0.009957	-0.005674	-0.508545	0.524658	-0.677490	0.565222	-0.131088	-0.172081	-0.796071
34953		3.952820	1.169233	8.840217	0.048779	0.019204	-0.016873	-0.502197	0.528564	-0.684082	0.565182	-0.130593	-0.172422	-0.796106
34954		3.861610	1.258161	8.769284	0.049228	0.012125	-0.016903	-0.504395	0.526367	-0.688477	0.565235	-0.130093	-0.172747	-0.796080
34955		3.881739	1.308326	8.787012	0.027045	0.009404	-0.012015	-0.502686	0.524414	-0.673828	0.565280	-0.129757	-0.172896	-0.796071
34956		3.896801	1.264159	8.797332	0.014011	0.006540	-0.007601	-0.504883	0.523193	-0.675781	0.565285	-0.129688	-0.172901	-0.796077
34957		3.881887	1.257249	8.793342	0.002356	0.005166	-0.005844	-0.498779	0.521240	-0.680420	0.565267	-0.129707	-0.172826	-0.796103
34958		3.879388	1.238393	8.796664	-0.003246	-0.000045	-0.003396	-0.500244	0.524902	-0.678223	0.565301	-0.129721	-0.172714	-0.796101
34959		3.928514	1.228688	8.821424	0.006838	-0.000825	-0.005835	-0.507080	0.523193	-0.679688	0.565330	-0.129721	-0.172689	-0.796086
34960		3.935060	1.233581	8.839341	0.011093	0.001446	-0.007435	-0.497803	0.523193	-0.681641	0.565297	-0.129684	-0.172754	-0.796101
34961		3.935647	1.219922	8.851341	0.020974	0.005499	-0.010178	-0.502197	0.514893	-0.668457	0.565338	-0.129452	-0.172836	-0.796092
34962		3.896556	1.264449	8.818426	0.028523	0.006626	-0.012674	-0.507080	0.524170	-0.682373	0.565228	-0.129266	-0.173058	-0.796152
34963		3.861465	1.286332	8.776312	0.014474	0.005231	-0.007031	-0.499756	0.531006	-0.685059	0.565232	-0.129161	-0.173116	-0.796154
34964		3.901665	1.289329	8.802871	0.003235	-0.000047	-0.004087	-0.502930	0.524658	-0.680420	0.565342	-0.129167	-0.172996	-0.796101
34965		3.883279	1.255703	8.824518	0.001489	-0.000799	-0.003751	-0.501953	0.522217	-0.686523	0.565369	-0.129219	-0.172931	-0.796088
34966		3.909807	1.243451	8.816103	0.007227	-0.001303	-0.005980	-0.504883	0.523438	-0.672363	0.565394	-0.129147	-0.172956	-0.796076
34967		3.887833	1.274618	8.799313	0.004607	-0.004324	-0.007326	-0.499756	0.521240	-0.683105	0.565330	-0.129287	-0.172960	-0.796098
34968		3.889789	1.284633	8.797225	-0.005303	-0.006925	-0.002762	-0.500732	0.534180	-0.679443	0.565353	-0.129380	-0.172882	-0.796084
34969		3.911222	1.262379	8.802438	-0.009878	-0.007843	-0.000947	-0.501465	0.534180	-0.683350	0.565442	-0.129636	-0.172659	-0.796027
34970		3.917403	1.243421	8.823490	-0.009487	-0.002553	-0.000516	-0.507812	0.518555	-0.679932	0.565552	-0.129798	-0.172420	-0.795974
34971		3.893950	1.251747	8.810208	-0.006644	-0.004102	-0.001339	-0.504150	0.519531	-0.679199	0.565509	-0.129924	-0.172385	-0.795992
34972		3.895958	1.259493	8.808427	-0.011041	-0.006425	-0.000538	-0.501465	0.521484	-0.677246	0.565488	-0.130093	-0.172289	-0.796000
34973		3.879505	1.259524	8.814535	-0.013969	-0.009807	-0.001020	-0.503906	0.526123	-0.683350	0.565470	-0.130326	-0.172155	-0.796003
34974		3.910238	1.257542	8.834641	-0.012111	-0.011340	-0.002445	-0.500977	0.524414	-0.681885	0.565470	-0.130536	-0.172046	-0.795993
34975		3.910752	1.240577	8.804934	-0.012727	-0.012061	-0.000714	-0.505371	0.521240	-0.676514	0.565488	-0.130742	-0.171929	-0.795972
34976		3.890087	1.256302	8.789620	-0.022423	-0.011764	0.001591	-0.500000	0.526611	-0.684814	0.565449	-0.131069	-0.171753	-0.795983
34977		3.874028	1.247501	8.765154	-0.035502	-0.017239	0.006592	-0.503662	0.520264	-0.675293	0.565518	-0.131470	-0.171423	-0.795939
34978		3.846991	1.253071	8.785059	-0.052804	-0.026449	0.011351	-0.508545	0.520508	-0.677246	0.565493	-0.132155	-0.171038	-0.795926
34979		3.883191	1.179849	8.801126	-0.060575	-0.036278	0.015440	-0.504883	0.529297	-0.678711	0.565451	-0.132995	-0.170677	-0.795893
34980		3.979211	1.164792	8.839725	-0.048526	-0.035106	0.011026	-0.503418	0.532471	-0.675537	0.565464	-0.133724	-0.170359	-0.795831
34981		3.992596	1.183818	8.842500	-0.040974	-0.028207	0.009116	-0.507080	0.532471	-0.677246	0.565499	-0.134347	-0.170041	-0.795768
34982		3.976928	1.153303	8.820282	-0.036114	-0.019713	0.008853	-0.509033	0.527344	-0.672363	0.565541	-0.134840	-0.169744	-0.795719
34983		3.987145	1.105949	8.821707	-0.024900	-0.020452	0.007797	-0.504883	0.528076	-0.672852	0.565532	-0.135272	-0.169611	-0.795680
34984		3.982999	1.112784	8.822244	-0.008758	-0.015303	0.000408	-0.508057	0.532227	-0.681152	0.565520	-0.135490	-0.169592	-0.795656
34985		3.946705	1.153104	8.810171	-0.004320	-0.016139	-0.001555	-0.499023	0.527832	-0.669189	0.565526	-0.135643	-0.169631	-0.795617
34986		3.974436	1.141463	8.821734	-0.009064	-0.015670	0.001266	-0.504150	0.533447	-0.670654	0.565547	-0.135860	-0.169575	-0.795577
34987		3.975041	1.111135	8.824830	-0.004722	-0.013949	-0.002063	-0.505371	0.530273	-0.682617	0.565547	-0.136063	-0.169547	-0.795549
34988		3.944125	1.149617	8.800454	-0.003424	-0.015597	0.000778	-0.509033	0.523926	-0.673828	0.565595	-0.136160	-0.169594	-0.795488
34989		3.967814	1.128027	8.804145	-0.002101	-0.018691	0.001792	-0.508057	0.527344	-0.676270	0.565559	-0.136338	-0.169719	-0.795456
34990		3.978638	1.134504	8.788422	-0.003075	-0.020393	0.001831	-0.504150	0.532715	-0.674072	0.565555	-0.136529	-0.169822	-0.795404
34991		3.979956	1.127783	8.809467	-0.001106	-0.018436	-0.000086	-0.510010	0.531250	-0.671387	0.565587	-0.136707	-0.169873	-0.795340
34992		3.996204	1.127148	8.813558	-0.001530	-0.014800	0.001239	-0.508301	0.541992	-0.666504	0.565582	-0.136895	-0.169924	-0.795300
34993		3.996947	1.112790	8.783143	-0.000402	-0.012780	-0.000471	-0.509277	0.532227	-0.669922	0.565613	-0.137138	-0.169885	-0.795245
34994		3.992869	1.128141	8.814353	-0.001473	-0.011924	-0.001790	-0.512695	0.537354	-0.670166	0.565591	-0.137297	-0.169910	-0.795227
34995		4.003485	1.094900	8.792892	0.003060	-0.007829	-0.002412	-0.498779	0.536377	-0.665039	0.565584	-0.137419	-0.169935	-0.795206
34996		3.997586	1.116798	8.792524	0.005867	-0.005935	-0.004531	-0.503662	0.535156	-0.677002	0.565633	-0.137466	-0.169911	-0.795169
34997		3.999590	1.128107	8.790336	0.005481	-0.005462	-0.004389	-0.506104	0.529297	-0.670654	0.565691	-0.137430	-0.169936	-0.795128
34998		3.988376	1.124699	8.816080	0.004152	-0.002644	-0.002934	-0.514404	0.529053	-0.671631	0.565698	-0.137411	-0.169962	-0.795121
34999		3.986350	1.112043	8.786701	0.005666	-0.001096	-0.004787	-0.512207	0.528076	-0.664795	0.565641	-0.137393	-0.170033	-0.795149
35000		3.968057	1.139169	8.811664	0.006052	-0.001569	-0.004931	-0.510254	0.529053	-0.676514	0.565565	-0.137416	-0.170092	-0.795186
35001		3.989700	1.107554	8.796379	0.009447	-0.004987	-0.006941	-0.504150	0.533936	-0.670898	0.565535	-0.137346	-0.170223	-0.795192
35002		3.980530	1.139466	8.785571	0.009364	-0.004151	-0.007664	-0.510742	0.535645	-0.671875	0.565541	-0.137311	-0.170277	-0.795182
35003		3.978351	1.135854	8.807839	0.007381	-0.004389	-0.006389	-0.511719	0.528320	-0.669434	0.565522	-0.137327	-0.170327	-0.795182
35004		3.992073	1.115123	8.794346	0.006778	-0.004844	-0.007130	-0.508057	0.531738	-0.671387	0.565446	-0.137336	-0.170420	-0.795215
35005		3.994581	1.136054	8.790831	0.004085	-0.003527	-0.003019	-0.506104	0.533203	-0.672607	0.565458	-0.137345	-0.170436	-0.795201
35006		3.983590	1.109809	8.798148	0.003636	-0.003664	-0.005425	-0.510254	0.534424	-0.670166	0.565470	-0.137343	-0.170439	-0.795192
35007		3.969976	1.129639	8.779944	0.004559	-0.004564	-0.004910	-0.500244	0.526611	-0.671143	0.565454	-0.137388	-0.170460	-0.795192
35008		3.980202	1.115359	8.809183	0.006292	-0.009577	-0.005871	-0.505127	0.526367	-0.663818	0.565461	-0.137376	-0.170547	-0.795171
35009		4.001772	1.133938	8.798462	0.007027	-0.007356	-0.004972	-0.499268	0.531494	-0.677246	0.565417	-0.137415	-0.170625	-0.795178
35010		4.011359	1.125066	8.795679	0.006944	-0.006520	-0.005695	-0.508301	0.532471	-0.678467	0.565491	-0.137343	-0.170677	-0.795127
35011		4.002834	1.133414	8.766272	0.006320	-0.005528	-0.004607	-0.500488	0.540039	-0.678467	0.565520	-0.137304	-0.170742	-0.795099
35012		3.981230	1.112760	8.798150	0.007246	-0.006157	-0.006562	-0.496826	0.532959	-0.677002	0.565621	-0.137266	-0.170754	-0.795031
35013		4.002191	1.131306	8.787677	0.005331	-0.005512	-0.005204	-0.500244	0.534180	-0.666504	0.565719	-0.137200	-0.170765	-0.794970
35014		3.988703	1.136863	8.802723	0.006707	-0.006002	-0.004754	-0.502930	0.535645	-0.666260	0.565763	-0.137230	-0.170774	-0.794931
35015		3.989133	1.128966	8.803409	0.005112	-0.006713	-0.003619	-0.508545	0.538330	-0.672119	0.565803	-0.137301	-0.170772	-0.794892
35016		4.016217	1.107428	8.795327	0.006809	-0.008558	-0.003394	-0.504639	0.528564	-0.668945	0.565841	-0.137370	-0.170817	-0.794843
35017		4.005785	1.142202	8.805628	0.008404	-0.007578	-0.007002	-0.506592	0.529053	-0.664795	0.565811	-0.137370	-0.170910	-0.794844
35018		4.006020	1.134695	8.806356	0.005612	-0.003702	-0.004246	-0.502441	0.533691	-0.664062	0.565787	-0.137398	-0.170936	-0.794850
35019		4.013712	1.116151	8.805565	0.008242	-0.000406	-0.005351	-0.507324	0.530762	-0.668457	0.565816	-0.137383	-0.170928	-0.794835
35020		3.995970	1.130922	8.810713	0.009043	0.002969	-0.006843	-0.503174	0.538818	-0.670166	0.565804	-0.137299	-0.170946	-0.794853
35021		4.014873	1.127367	8.782729	0.008317	0.006516	-0.007118	-0.506104	0.527832	-0.670898	0.565874	-0.137196	-0.170881	-0.794836
35022		4.008781	1.151315	8.792867	0.005892	0.011908	-0.007620	-0.507568	0.528809	-0.670898	0.565869	-0.137011	-0.170823	-0.794884
35023		3.998449	1.136164	8.809483	0.001978	0.014302	-0.008091	-0.511719	0.527344	-0.670898	0.565851	-0.136842	-0.170709	-0.794950
35024		3.930297	1.156036	8.770508	-0.000478	0.014835	-0.002449	-0.505371	0.531494	-0.673096	0.565847	-0.136709	-0.170576	-0.795004
35025		3.927322	1.099153	8.789252	-0.004540	-0.002114	-0.002474	-0.514404	0.535645	-0.666992	0.565872	-0.136755	-0.170488	-0.794998
35026		3.970021	1.078403	8.796204	0.013232	-0.008883	-0.009128	-0.502686	0.528320	-0.670166	0.565778	-0.136824	-0.170628	-0.795023
35027		3.993626	1.155702	8.766822	0.016647	-0.014291	-0.008035	-0.503906	0.534180	-0.666748	0.565752	-0.136822	-0.170847	-0.794995
35028		3.975157	1.192497	8.779835	0.005027	-0.011917	-0.002493	-0.509277	0.532471	-0.669434	0.565775	-0.136947	-0.170889	-0.794947
35029		3.977281	1.146123	8.795094	-0.001430	-0.013655	-0.001131	-0.508301	0.538574	-0.671875	0.565761	-0.137130	-0.170907	-0.794922
35030		4.019603	1.095598	8.805702	0.004765	-0.015450	-0.002817	-0.509766	0.535889	-0.677734	0.565785	-0.137288	-0.170975	-0.794863
35031		4.031095	1.133478	8.785798	0.007975	-0.009710	-0.006306	-0.502441	0.523682	-0.672119	0.565793	-0.137309	-0.171071	-0.794833
35032		4.012356	1.156184	8.779665	0.005225	-0.003231	-0.004110	-0.514160	0.531738	-0.669922	0.565804	-0.137245	-0.171118	-0.794826
35033		4.010913	1.138061	8.782453	0.000235	0.000013	-0.005891	-0.508789	0.527588	-0.667725	0.565745	-0.137277	-0.171080	-0.794871
35034		3.991951	1.109148	8.772362	0.002043	0.001654	-0.006150	-0.504150	0.539307	-0.672119	0.565699	-0.137254	-0.171051	-0.794914
35035		4.006559	1.102279	8.788655	0.007896	0.002935	-0.008258	-0.511963	0.533447	-0.675049	0.565749	-0.137180	-0.171017	-0.794898
35036		3.994427	1.147159	8.798417	0.009273	0.002447	-0.007810	-0.508789	0.535889	-0.677490	0.565734	-0.137085	-0.171053	-0.794918
35037		3.989208	1.138808	8.790983	0.006132	0.003628	-0.006092	-0.504883	0.533447	-0.677979	0.565775	-0.136990	-0.171031	-0.794909
35038		3.993518	1.123980	8.812324	0.007337	0.004811	-0.007091	-0.511963	0.527344	-0.668945	0.565826	-0.136845	-0.171018	-0.794900
35039		3.947659	1.147135	8.795708	0.005959	-0.000740	-0.005688	-0.514648	0.527832	-0.674561	0.565765	-0.136828	-0.171052	-0.794940
35040		4.008195	1.102136	8.777670	0.011639	-0.003826	-0.007393	-0.510254	0.534912	-0.673584	0.565697	-0.136771	-0.171183	-0.794970
35041		3.994219	1.178540	8.794601	0.008798	-0.002284	-0.006543	-0.513184	0.525146	-0.669922	0.565695	-0.136746	-0.171226	-0.794966
35042		3.992581	1.161117	8.797423	0.002129	0.000815	-0.005432	-0.512695	0.533447	-0.670410	0.565622	-0.136730	-0.171222	-0.795022
35043		3.987365	1.141692	8.791353	0.003141	-0.001181	-0.001721	-0.503418	0.532227	-0.672852	0.565626	-0.136767	-0.171196	-0.795018
35044		3.980550	1.125994	8.806531	0.003851	-0.002745	-0.004563	-0.500732	0.531738	-0.667236	0.565666	-0.136755	-0.171186	-0.794994
35045		3.972961	1.138305	8.807898	0.004561	-0.004574	-0.004931	-0.510254	0.536865	-0.672607	0.565694	-0.136781	-0.171180	-0.794971
35046		4.007526	1.143213	8.783134	0.005723	-0.005992	-0.005365	-0.504150	0.531494	-0.674072	0.565695	-0.136832	-0.171206	-0.794956
35047		4.000329	1.156276	8.784217	0.008002	-0.005394	-0.007524	-0.510742	0.533936	-0.668701	0.565703	-0.136802	-0.171268	-0.794942
35048		4.008270	1.138076	8.783380	0.006645	-0.000853	-0.006710	-0.513916	0.533691	-0.672363	0.565674	-0.136805	-0.171274	-0.794961
35049		3.991761	1.161458	8.786860	0.001998	-0.000954	-0.005594	-0.506348	0.536865	-0.675781	0.565640	-0.136830	-0.171248	-0.794986
35050		3.995232	1.163427	8.795811	0.000233	0.000005	-0.005898	-0.504883	0.535156	-0.673096	0.565678	-0.136826	-0.171177	-0.794975
35051		3.996616	1.113497	8.791078	0.000686	0.000152	-0.003489	-0.512207	0.527832	-0.666504	0.565732	-0.136826	-0.171105	-0.794952
35052		3.992144	1.140591	8.768241	0.000731	-0.003020	-0.004673	-0.515625	0.531250	-0.679932	0.565664	-0.136886	-0.171089	-0.794994
35053		3.984677	1.115323	8.784917	0.005141	-0.002397	-0.004844	-0.517334	0.535156	-0.665039	0.565646	-0.136851	-0.171135	-0.795002
35054		3.980338	1.129198	8.795380	0.006819	-0.002521	-0.005265	-0.512207	0.531494	-0.677002	0.565578	-0.136917	-0.171152	-0.795036
35055		4.000512	1.147701	8.785084	0.005528	-0.002870	-0.004990	-0.511963	0.539307	-0.666504	0.565572	-0.136891	-0.171190	-0.795037
35056		3.984378	1.133898	8.803726	0.005395	0.001136	-0.004530	-0.515137	0.527344	-0.673096	0.565572	-0.136925	-0.171139	-0.795042
35057		3.999212	1.164199	8.804598	0.004666	-0.001091	-0.005426	-0.509277	0.536133	-0.667969	0.565517	-0.136901	-0.171171	-0.795078
35058		3.984222	1.136716	8.803433	0.002515	0.000077	-0.003108	-0.507080	0.529785	-0.668701	0.565533	-0.136937	-0.171108	-0.795074
35059		3.983076	1.165262	8.789646	0.001546	-0.001367	-0.005532	-0.508057	0.529785	-0.670654	0.565513	-0.136950	-0.171076	-0.795093
35060		3.974904	1.144649	8.774341	0.001743	-0.004490	-0.005913	-0.510498	0.525635	-0.662842	0.565484	-0.136983	-0.171074	-0.795109
35061		3.974780	1.135403	8.775539	-0.002473	-0.002726	-0.003028	-0.505615	0.526611	-0.667480	0.565421	-0.137068	-0.171017	-0.795151
35062		4.007812	1.114387	8.786409	-0.002195	-0.000909	-0.002068	-0.509277	0.529785	-0.675781	0.565424	-0.137098	-0.170946	-0.795158
35063		3.984079	1.134224	8.772033	0.002124	0.000811	-0.005441	-0.511230	0.532715	-0.670166	0.565425	-0.137047	-0.170926	-0.795171
35064		3.984864	1.130698	8.803868	0.005141	-0.002397	-0.004849	-0.505127	0.532715	-0.672119	0.565405	-0.137059	-0.170934	-0.795182
35065		3.981867	1.131297	8.794369	0.006304	-0.003815	-0.005284	-0.505615	0.534424	-0.672363	0.565426	-0.137048	-0.170959	-0.795163
35066		3.983345	1.142441	8.792308	0.004241	-0.003481	-0.002240	-0.500244	0.530762	-0.676514	0.565478	-0.137062	-0.170950	-0.795126
35067		3.995138	1.124436	8.800533	0.005316	-0.004065	-0.003401	-0.510742	0.535889	-0.675537	0.565555	-0.137017	-0.170975	-0.795073
35068		3.981241	1.143931	8.782286	0.003550	-0.003108	-0.003704	-0.507324	0.520508	-0.674072	0.565577	-0.137032	-0.170970	-0.795056
35069		3.970644	1.117496	8.789821	0.002822	-0.005337	-0.004599	-0.509521	0.528320	-0.673096	0.565543	-0.137006	-0.171027	-0.795072
35070		3.981352	1.149767	8.802489	0.003235	-0.007527	-0.004098	-0.507812	0.531738	-0.671875	0.565522	-0.137045	-0.171071	-0.795071
35071		3.995743	1.150237	8.807238	-0.000243	-0.009309	-0.000932	-0.510254	0.531982	-0.672363	0.565542	-0.137149	-0.171070	-0.795039
35072		4.006021	1.116241	8.786383	-0.003198	-0.005218	-0.001445	-0.514648	0.537598	-0.675781	0.565548	-0.137235	-0.171016	-0.795032
35073		4.005894	1.129278	8.805810	-0.000231	-0.004991	-0.002147	-0.512451	0.528076	-0.665039	0.565558	-0.137311	-0.170983	-0.795018
35074		4.010620	1.108340	8.796058	0.003848	-0.002748	-0.004577	-0.505371	0.537109	-0.669434	0.565496	-0.137344	-0.170989	-0.795056
35075		4.010616	1.109787	8.795877	0.004851	0.001559	-0.005199	-0.513916	0.530029	-0.670166	0.565531	-0.137320	-0.170941	-0.795045
35076		4.004093	1.128408	8.774944	0.005701	0.005815	-0.006625	-0.507812	0.529541	-0.664062	0.565487	-0.137233	-0.170914	-0.795098
35077		4.014662	1.152901	8.799409	0.004689	0.007283	-0.005387	-0.503906	0.536865	-0.671631	0.565469	-0.137158	-0.170844	-0.795138
35078		4.019264	1.124553	8.801442	0.005324	0.010605	-0.007698	-0.509277	0.531006	-0.675293	0.565514	-0.137021	-0.170745	-0.795151
35079		4.013282	1.135256	8.792034	0.008279	0.016605	-0.007787	-0.509277	0.530029	-0.666260	0.565534	-0.136774	-0.170672	-0.795195
35080		3.987130	1.139585	8.791435	0.009424	0.021479	-0.012572	-0.502686	0.526123	-0.670166	0.565479	-0.136509	-0.170564	-0.795303
35081		4.017645	1.123956	8.813622	0.014958	0.027919	-0.010749	-0.507324	0.538574	-0.674316	0.565506	-0.136093	-0.170479	-0.795373
35082		3.989413	1.131446	8.813536	0.030785	0.028786	-0.011200	-0.513672	0.537354	-0.670898	0.565582	-0.135602	-0.170512	-0.795396
35083		3.946227	1.146124	8.828862	0.045683	0.030543	-0.012178	-0.506836	0.532471	-0.677979	0.565616	-0.135022	-0.170683	-0.795434
35084		3.963656	1.138658	8.844625	0.051058	0.022780	-0.011822	-0.508545	0.528320	-0.675293	0.565695	-0.134416	-0.170984	-0.795416
35085		3.923727	1.212719	8.839843	0.054339	0.016820	-0.006585	-0.505127	0.528809	-0.676758	0.565782	-0.133868	-0.171356	-0.795366
35086		3.954581	1.202190	8.797834	0.025766	0.012253	-0.000065	-0.508545	0.528320	-0.674561	0.565901	-0.133576	-0.171459	-0.795308
35087		3.979751	1.173102	8.834583	0.036245	0.023465	-0.001519	-0.501709	0.526123	-0.682617	0.566015	-0.133118	-0.171588	-0.795276
35088		3.988846	1.122287	8.817534	0.074626	0.034309	-0.016586	-0.494629	0.524902	-0.680176	0.566126	-0.132188	-0.172062	-0.795250
35089		3.986536	1.148060	8.836809	0.109797	0.042350	-0.041276	-0.508545	0.529541	-0.677246	0.566092	-0.130880	-0.172854	-0.795319
35090		3.966043	1.167882	8.821974	0.136297	0.060829	-0.056281	-0.498535	0.521240	-0.684326	0.565909	-0.129256	-0.173781	-0.795512
35091		3.870819	1.307510	8.765165	0.127162	0.063447	-0.056555	-0.507080	0.508545	-0.686035	0.565769	-0.127601	-0.174618	-0.795696
35092		3.634775	1.485070	8.638815	0.059899	0.038898	-0.028893	-0.504395	0.516357	-0.681396	0.565653	-0.126713	-0.174961	-0.795845
35093		3.611688	1.575637	8.581226	-0.057862	-0.001742	0.026747	-0.502441	0.514893	-0.685547	0.565837	-0.127243	-0.174281	-0.795779
35094		3.727194	1.630123	8.593621	-0.230563	-0.021411	0.125870	-0.502197	0.520508	-0.684814	0.566704	-0.129364	-0.171884	-0.795341
35095		3.644837	1.658314	8.645632	-0.417555	-0.027320	0.221286	-0.493408	0.533447	-0.676025	0.568194	-0.133060	-0.167519	-0.794599
35096		3.651255	1.376587	8.769223	-0.587553	-0.069102	0.269279	-0.493408	0.549805	-0.667236	0.569797	-0.138482	-0.161650	-0.793740
35097		3.840887	0.513840	8.940277	-0.549978	-0.083242	0.214690	-0.487549	0.560547	-0.663818	0.570853	-0.143676	-0.156331	-0.793124
35098		4.047271	0.256779	8.983008	-0.415422	-0.071285	0.160737	-0.487793	0.571289	-0.658203	0.571654	-0.147639	-0.152364	-0.792590
35099		4.417685	0.385821	8.801811	-0.332720	0.032896	0.135063	-0.488037	0.578125	-0.646240	0.572537	-0.149932	-0.148513	-0.792253
35100		3.603427	0.703936	8.819090	-0.288200	0.090364	0.120591	-0.483398	0.590088	-0.640625	0.573411	-0.151352	-0.144701	-0.792057
35101		3.387077	0.105185	9.057431	-0.190211	-0.039257	0.118183	-0.486572	0.588623	-0.647461	0.574220	-0.153376	-0.142763	-0.791433
35102		3.849219	0.517525	8.998151	-0.060207	-0.171204	0.109601	-0.489746	0.594727	-0.648193	0.574942	-0.155690	-0.143124	-0.790391
35103		4.296859	0.622014	8.689109	-0.151129	-0.109801	0.145961	-0.484375	0.590576	-0.643066	0.575962	-0.158114	-0.142073	-0.789356
35104		3.981605	0.099461	8.797759	-0.087473	-0.064150	0.105333	-0.485596	0.600830	-0.641357	0.576786	-0.159527	-0.141426	-0.788586
35105		4.100455	0.581350	8.819224	-0.103847	-0.087580	0.122507	-0.482910	0.600586	-0.642090	0.577716	-0.161347	-0.140730	-0.787659
35106		4.315126	0.100706	8.859825	-0.041571	-0.105949	0.099755	-0.495117	0.610352	-0.638184	0.578530	-0.162826	-0.140850	-0.786735
35107		3.874444	0.295633	9.110439	-0.022314	-0.209595	0.088326	-0.489990	0.605713	-0.641357	0.579018	-0.165219	-0.141897	-0.785688
35108		2.987864	0.337089	9.561369	0.029623	-0.573450	0.092482	-0.495605	0.611084	-0.630371	0.579044	-0.170753	-0.146119	-0.783709
35109		2.178318	0.547161	10.485887	0.112707	-1.348110	0.078806	-0.519043	0.600586	-0.610596	0.577607	-0.183250	-0.156733	-0.779888
35110		1.587440	-1.883148	11.835240	0.399764	-2.816135	-0.148414	-0.563477	0.600342	-0.578369	0.571194	-0.207377	-0.181130	-0.773256
35111		2.250012	-1.192424	11.171233	0.650697	-4.528403	-0.475446	-0.622803	0.577637	-0.523193	0.557105	-0.245056	-0.220544	-0.762196
35112		5.844073	1.023314	9.744876	0.504989	-5.358742	-0.436157	-0.691895	0.556641	-0.436035	0.538517	-0.290730	-0.263366	-0.745730
35113		13.156239	0.443753	10.289232	0.792561	-4.946217	-0.396436	-0.739258	0.533936	-0.357178	0.520332	-0.329531	-0.304811	-0.726467
35114		16.366211	0.841587	5.199358	1.539189	-2.412122	-0.323024	-0.757080	0.505615	-0.340088	0.514158	-0.339867	-0.335486	-0.712447
35115		13.962363	-2.090270	-0.798072	1.126906	0.366892	0.652064	-0.731445	0.500244	-0.352539	0.526230	-0.331782	-0.340302	-0.705122
35116		7.273867	2.147208	-3.219315	-0.014703	1.689412	1.281358	-0.698975	0.515137	-0.380127	0.544488	-0.322236	-0.323561	-0.703566
35117		3.273839	1.454810	-3.784819	-0.657319	1.529062	0.762747	-0.669922	0.541748	-0.398438	0.554639	-0.316288	-0.304164	-0.706980
35118		-0.835139	-0.332622	-5.553527	0.325319	0.789013	0.556218	-0.649658	0.544189	-0.408936	0.563875	-0.309185	-0.299323	-0.704880
35119		-0.376052	3.134671	-4.798384	1.076193	-0.633140	0.085412	-0.667236	0.553223	-0.405762	0.566437	-0.307500	-0.312897	-0.697630
35120		0.584751	1.365680	-1.953443	-0.048446	-1.284287	-0.367108	-0.688721	0.551025	-0.388672	0.558021	-0.317616	-0.322944	-0.695298
35121		31.556863	-0.803420	21.140837	-0.106338	3.447478	-0.966449	-0.683594	0.557861	-0.436523	0.562644	-0.284240	-0.301515	-0.715351
35122		6.714696	4.012129	11.557748	0.182701	6.013423	-1.007282	-0.621826	0.540527	-0.534180	0.575367	-0.224707	-0.263607	-0.740926
35123		3.982721	3.164355	10.243188	-0.459735	5.186969	-0.626330	-0.553467	0.541260	-0.597656	0.584200	-0.177537	-0.223268	-0.759831
35124		-1.113199	5.532174	11.701256	-0.946719	4.378451	0.037181	-0.493652	0.566895	-0.641113	0.593824	-0.142777	-0.181882	-0.770654
35125		-10.656153	-1.925232	15.402147	-0.780409	0.122436	0.864077	-0.485107	0.595703	-0.635498	0.601011	-0.149386	-0.171863	-0.766115
35126		10.535578	1.432814	5.558560	-0.608559	-0.859817	0.737996	-0.485352	0.608643	-0.624268	0.604988	-0.163765	-0.170984	-0.760220
35127		6.634210	-0.282520	7.567162	-0.570721	0.573933	0.347606	-0.457520	0.629883	-0.619629	0.608321	-0.163381	-0.160423	-0.759945
35128		1.781803	-0.850548	10.729436	-0.197682	-0.031656	0.164769	-0.464111	0.629150	-0.617432	0.609454	-0.165539	-0.158388	-0.758997
35129		5.847152	0.164105	8.175071	-0.006454	-0.194919	-0.014687	-0.469727	0.634766	-0.619629	0.608924	-0.167426	-0.159760	-0.758720
35130		3.297396	0.239935	9.309653	0.051962	-0.155751	-0.040755	-0.462158	0.630615	-0.617432	0.608353	-0.168449	-0.161450	-0.758595
35131		2.190855	0.413271	10.299209	0.126792	-0.946163	0.009871	-0.492920	0.628174	-0.604248	0.606789	-0.176482	-0.169739	-0.756207
35132		1.020827	-0.284742	12.211217	0.275588	-2.469080	-0.082229	-0.524414	0.614014	-0.581543	0.601079	-0.197487	-0.191068	-0.750464
35133		1.166519	0.386278	12.554451	0.252922	-4.639583	-0.280304	-0.589355	0.607422	-0.510010	0.586968	-0.238092	-0.228524	-0.739295
35134		5.171617	1.643499	10.797004	-0.032972	-5.891518	-0.090613	-0.665771	0.592773	-0.425293	0.567586	-0.291842	-0.270891	-0.720620
35135		15.909681	-0.218063	12.131865	0.594739	-5.263791	0.067882	-0.705078	0.587402	-0.345947	0.551245	-0.334598	-0.312540	-0.697489
35136		19.516593	0.223685	4.854545	1.536011	-2.098974	0.119023	-0.704834	0.561523	-0.340088	0.550187	-0.342603	-0.339548	-0.681633
35137		14.755723	4.469677	4.569012	0.198737	1.923036	0.416894	-0.676270	0.552246	-0.375977	0.562604	-0.326495	-0.325996	-0.686007
35138		1.340767	-1.476902	-3.817380	-0.524905	2.771495	0.244074	-0.640625	0.549561	-0.416504	0.573510	-0.307221	-0.300705	-0.697336
35139		-1.386094	-0.467513	-6.934755	0.369088	1.524929	0.127671	-0.614746	0.555420	-0.442139	0.581694	-0.291724	-0.292359	-0.700753
35140		-2.387077	1.962906	-6.876351	0.928586	-0.622831	0.063732	-0.624756	0.547607	-0.450684	0.583356	-0.290658	-0.304702	-0.694529
35141		1.665785	3.289076	-3.086867	0.404437	-1.601470	-0.548277	-0.645996	0.541992	-0.421875	0.573897	-0.299480	-0.321775	-0.690952
35142		1.976083	-3.306378	-2.538764	-0.978291	-1.796742	-0.230703	-0.691406	0.552246	-0.385254	0.560901	-0.321015	-0.326959	-0.689520
35143		15.764984	0.744139	10.227145	-0.371532	-1.487721	-0.026930	-0.725586	0.575684	-0.353027	0.553046	-0.336318	-0.334220	-0.685075
35144		32.742621	-1.929572	8.746772	0.367496	5.475783	-1.137449	-0.682373	0.548584	-0.450439	0.566389	-0.281417	-0.303472	-0.712680
35145		1.544047	-0.230194	14.629029	0.304027	5.614558	-1.210329	-0.630615	0.532715	-0.544922	0.576587	-0.224062	-0.269961	-0.737879
35146		4.943739	4.448651	5.357018	-0.629287	5.155659	-0.928452	-0.573242	0.541260	-0.599609	0.582471	-0.177540	-0.229024	-0.759444
35147		-6.515271	14.583439	15.490234	-1.912554	4.276513	1.272826	-0.487061	0.586426	-0.643066	0.601523	-0.154315	-0.176497	-0.763679
35148		-3.174203	-9.813991	13.947186	-1.918930	-0.096401	1.705428	-0.459717	0.643311	-0.615723	0.613613	-0.173368	-0.155482	-0.754485
35149		8.207424	-4.706797	6.852203	0.543087	-1.438285	-0.230046	-0.485596	0.631592	-0.611572	0.609721	-0.182295	-0.172006	-0.751946
35150		5.961881	3.929559	7.555408	0.178017	-0.445632	-0.211778	-0.501465	0.622314	-0.603271	0.607188	-0.184686	-0.177471	-0.752142
35151		3.501322	0.251457	9.800122	-0.293620	-0.487631	0.259757	-0.497070	0.629883	-0.584473	0.607863	-0.192094	-0.177731	-0.749676
35152		2.132307	-1.123553	11.430518	-0.043370	-1.687806	-0.148636	-0.526855	0.635498	-0.577148	0.602491	-0.207888	-0.190380	-0.746688
35153		2.163476	-1.019119	11.730592	0.058135	-3.320135	-0.325831	-0.574463	0.623779	-0.520020	0.591190	-0.237487	-0.216499	-0.739745
35154		3.771909	-0.134226	10.555061	0.017749	-4.735047	-0.407611	-0.633057	0.607666	-0.454102	0.573609	-0.279607	-0.252326	-0.727409
35155		7.507263	2.116315	9.302078	-0.316768	-5.291859	-0.262239	-0.698730	0.605957	-0.358154	0.552163	-0.328514	-0.287571	-0.710280
35156		13.082344	1.074436	8.846874	0.193748	-4.699175	-0.176093	-0.729492	0.597900	-0.283691	0.533506	-0.367687	-0.321761	-0.690396
35157		18.210907	1.640639	4.653455	0.877666	-2.310863	-0.193277	-0.741943	0.566650	-0.256348	0.526316	-0.380804	-0.345316	-0.677301
35158		17.309486	2.803852	5.536162	-0.074085	1.621039	-0.338924	-0.722412	0.549072	-0.298584	0.529942	-0.365966	-0.335424	-0.687547
35159		4.428940	-1.848085	-1.561656	0.054593	3.780048	-0.379488	-0.687256	0.534424	-0.373291	0.542205	-0.331089	-0.312113	-0.706385
35160		-2.494769	-1.791837	-8.428829	1.285745	2.224467	0.135551	-0.655273	0.522949	-0.423584	0.557170	-0.303104	-0.307587	-0.709282
35161		-0.083599	-1.081254	-5.475683	1.165924	-0.185476	1.436736	-0.638184	0.541016	-0.424805	0.573524	-0.302089	-0.313630	-0.693865
35162		2.288391	-0.405922	-1.954066	0.255839	-0.394640	1.645742	-0.618896	0.569092	-0.432861	0.587151	-0.310088	-0.312350	-0.679365
35163		-2.340922	1.366014	-6.941987	-0.332222	-1.569441	1.019967	-0.635742	0.600342	-0.392334	0.588329	-0.329768	-0.316989	-0.666813
35164		15.263996	-1.055470	10.111535	-0.637075	-1.796585	-0.009617	-0.667969	0.623779	-0.357910	0.578420	-0.349330	-0.324835	-0.661726
35165		32.969826	-4.892352	8.027870	1.078919	5.207941	-1.473311	-0.647705	0.591797	-0.449219	0.590771	-0.291734	-0.301764	-0.689071
35166		2.342415	3.811989	14.281466	1.491347	5.427282	-1.788031	-0.611816	0.554443	-0.548340	0.599729	-0.226595	-0.280265	-0.714445
35167		5.440725	4.948104	9.086082	-0.208188	4.755661	-1.565296	-0.552246	0.534668	-0.619385	0.600684	-0.179889	-0.246642	-0.738909
35168		-0.666668	10.664683	11.011565	-1.182916	4.130680	-0.097588	-0.494385	0.562256	-0.656494	0.609075	-0.150135	-0.204562	-0.751426
35169		-3.781128	-3.463444	14.142317	-1.636996	1.330767	0.936138	-0.451416	0.600830	-0.641602	0.617998	-0.152489	-0.177180	-0.750622
35170		4.462816	-2.148302	8.455823	-0.097166	-0.476958	0.145109	-0.460449	0.604980	-0.644043	0.618135	-0.158061	-0.179594	-0.748780
35171		5.711550	1.288811	7.687156	0.100618	-0.292867	-0.027721	-0.480469	0.601562	-0.630859	0.617438	-0.159985	-0.182778	-0.748176
35172		5.209408	0.017235	8.633504	0.054671	0.130139	-0.039950	-0.461426	0.596191	-0.640137	0.617471	-0.158288	-0.182292	-0.748629
35173		4.369116	-0.007298	8.950099	0.262457	0.084034	-0.204869	-0.466064	0.589111	-0.636475	0.616293	-0.155036	-0.184439	-0.749753
35174		4.077727	1.125982	8.801902	0.297981	-0.131831	-0.261324	-0.473389	0.581543	-0.647705	0.614130	-0.153402	-0.188681	-0.750808
35175		4.257741	1.831837	8.394316	0.128727	-0.191839	-0.144515	-0.479248	0.583740	-0.648438	0.612589	-0.153901	-0.191569	-0.751233
35176		4.503284	1.740338	8.406861	0.001119	-0.152257	-0.023938	-0.486572	0.583008	-0.643555	0.612026	-0.155293	-0.192722	-0.751110
35177		4.859806	1.592031	8.223332	-0.119521	-0.031073	0.059900	-0.482422	0.580811	-0.635986	0.612296	-0.156673	-0.191650	-0.750878
35178		4.810038	0.361522	8.215357	-0.149856	0.109522	0.045942	-0.476562	0.593262	-0.635010	0.612712	-0.156931	-0.189247	-0.751094
35179		4.345781	-0.119659	8.661617	-0.022497	0.126701	-0.019876	-0.479492	0.583008	-0.644531	0.612806	-0.155896	-0.188037	-0.751536
35180		4.487451	0.423912	8.602666	0.080912	0.094851	-0.066993	-0.471924	0.583984	-0.645508	0.612579	-0.154256	-0.188135	-0.752035
35181		4.391549	1.301320	8.642925	0.063645	0.106993	-0.062723	-0.473145	0.588867	-0.647705	0.612395	-0.152643	-0.187969	-0.752556
35182		4.408019	1.283666	8.605826	-0.007048	0.082483	-0.008901	-0.465820	0.586426	-0.649170	0.612521	-0.151929	-0.187220	-0.752784
35183		4.286557	1.035347	8.652375	-0.019505	0.044389	0.007765	-0.475586	0.583740	-0.652832	0.612700	-0.151704	-0.186618	-0.752834
35184		4.427817	0.808345	8.682372	0.002114	-0.005911	-0.003618	-0.471680	0.582275	-0.648193	0.612679	-0.151762	-0.186622	-0.752838
35185		4.545682	0.903622	8.561159	0.010157	0.003162	-0.006375	-0.467773	0.583252	-0.653809	0.612671	-0.151667	-0.186638	-0.752860
35186		4.500090	0.743892	8.571289	0.012566	0.025107	-0.007001	-0.467285	0.580566	-0.651367	0.612725	-0.151343	-0.186513	-0.752912
35187		4.506261	0.804013	8.593616	0.039858	0.029989	-0.021804	-0.464355	0.587402	-0.647461	0.612699	-0.150730	-0.186636	-0.753025
35188		4.549977	0.948923	8.554983	0.043205	0.049175	-0.027040	-0.465332	0.586670	-0.650146	0.612676	-0.149901	-0.186649	-0.753206
35189		4.482237	1.093959	8.578322	0.017553	0.081644	-0.020697	-0.468018	0.581543	-0.655762	0.612739	-0.148977	-0.186160	-0.753459
35190		4.351723	1.065919	8.632010	-0.011739	0.099674	-0.011012	-0.468262	0.588135	-0.655762	0.612877	-0.148129	-0.185242	-0.753741
35191		4.353862	0.920251	8.662639	-0.027150	0.089954	-0.004837	-0.468262	0.587158	-0.648682	0.613017	-0.147506	-0.184237	-0.753995
35192		4.348408	0.829872	8.656605	-0.012101	0.076606	-0.015096	-0.461426	0.586182	-0.654541	0.613045	-0.146871	-0.183489	-0.754279
35193		4.333849	0.840518	8.662607	0.006313	0.070941	-0.019809	-0.458496	0.578613	-0.657959	0.613066	-0.146135	-0.182976	-0.754529
35194		4.260256	0.840488	8.685526	0.022625	0.050362	-0.019896	-0.458252	0.582275	-0.651123	0.613076	-0.145466	-0.182780	-0.754698
35195		4.195185	0.983623	8.695526	0.036222	0.014315	-0.022420	-0.462158	0.578613	-0.655029	0.612993	-0.145028	-0.182984	-0.754800
35196		4.314329	1.046433	8.634270	0.018138	-0.000409	-0.011200	-0.464844	0.585693	-0.653564	0.612944	-0.144893	-0.183111	-0.754835
35197		4.314331	0.964493	8.667186	-0.002774	0.005340	-0.003515	-0.462158	0.591309	-0.658936	0.612936	-0.144885	-0.182976	-0.754876
35198		4.309186	0.912976	8.665835	-0.007855	0.004917	0.000173	-0.462158	0.578369	-0.650879	0.612966	-0.144927	-0.182793	-0.754888
35199		4.330250	0.921848	8.687587	-0.007469	0.006731	0.001054	-0.461670	0.584961	-0.663086	0.612998	-0.144950	-0.182599	-0.754904
35200		4.279808	0.917270	8.678330	-0.004376	0.010197	-0.001002	-0.466064	0.586914	-0.661865	0.613042	-0.144910	-0.182420	-0.754919
35201		4.300448	0.909711	8.659583	0.009428	0.004991	-0.006758	-0.458008	0.581543	-0.658447	0.613033	-0.144802	-0.182415	-0.754949
35202		4.309727	0.968812	8.647494	0.010692	0.005857	-0.005406	-0.465576	0.586914	-0.658447	0.613054	-0.144678	-0.182419	-0.754955
35203		4.307930	1.001297	8.654716	-0.005143	0.014703	0.003644	-0.467041	0.578613	-0.651855	0.613132	-0.144614	-0.182179	-0.754961
35204		4.300224	0.935150	8.688851	-0.016083	0.015918	0.008231	-0.458984	0.583008	-0.650146	0.613224	-0.144633	-0.181816	-0.754971
35205		4.287132	0.887788	8.668897	-0.012960	0.013327	0.003153	-0.464111	0.579590	-0.660400	0.613283	-0.144641	-0.181513	-0.754994
35206		4.312706	0.888124	8.657644	-0.003036	0.009865	-0.002992	-0.465088	0.583984	-0.659180	0.613299	-0.144589	-0.181352	-0.755030
35207		4.286033	0.954090	8.660500	0.000405	0.010051	-0.001479	-0.469727	0.580811	-0.656982	0.613329	-0.144514	-0.181213	-0.755053
35208		4.258952	0.920922	8.677082	-0.007120	0.012155	-0.002493	-0.457275	0.577148	-0.655029	0.613326	-0.144475	-0.180986	-0.755117
35209		4.246750	0.864248	8.690267	0.001049	0.001883	-0.002478	-0.458496	0.586914	-0.658936	0.613345	-0.144468	-0.180925	-0.755118
35210		4.272370	0.929829	8.680784	0.005571	-0.007791	-0.005440	-0.461182	0.580322	-0.656494	0.613322	-0.144513	-0.180981	-0.755115
35211		4.294591	0.932485	8.702849	0.003015	-0.009161	-0.004113	-0.456787	0.591064	-0.655762	0.613294	-0.144593	-0.181021	-0.755113
35212		4.317165	0.910224	8.663649	-0.001940	-0.000467	-0.002733	-0.465820	0.585693	-0.653320	0.613298	-0.144635	-0.180938	-0.755121
35213		4.284375	0.906635	8.667869	-0.003217	0.007268	-0.002413	-0.453125	0.584961	-0.651855	0.613292	-0.144613	-0.180777	-0.755169
35214		4.241659	0.910323	8.696974	-0.001555	0.001346	-0.001852	-0.469482	0.585205	-0.649170	0.613314	-0.144635	-0.180687	-0.755168
35215		4.282689	0.862349	8.696230	0.003899	-0.004651	-0.002290	-0.457764	0.590088	-0.655029	0.613275	-0.144673	-0.180675	-0.755195
35216		4.300852	0.908513	8.681929	0.007502	-0.001399	-0.006097	-0.462646	0.574463	-0.655762	0.613260	-0.144644	-0.180694	-0.755209
35217		4.312957	0.926756	8.674163	0.005310	0.002190	-0.003563	-0.454834	0.584961	-0.660645	0.613266	-0.144596	-0.180676	-0.755217
35218		4.285933	0.930215	8.664204	0.001408	0.012532	-0.002294	-0.461182	0.589844	-0.649658	0.613330	-0.144488	-0.180542	-0.755218
35219		4.234036	0.914236	8.689381	-0.002855	0.012224	-0.001211	-0.461670	0.581543	-0.659424	0.613349	-0.144422	-0.180337	-0.755265
35220		4.269276	0.864844	8.680762	0.003180	0.002036	-0.003021	-0.460205	0.589600	-0.653076	0.613361	-0.144396	-0.180297	-0.755269
35221		4.276937	0.900733	8.704800	0.008114	0.002179	-0.005095	-0.463623	0.589355	-0.651367	0.613349	-0.144331	-0.180285	-0.755294
35222		4.312405	0.919706	8.675957	0.003423	0.006346	-0.004248	-0.469971	0.585205	-0.658936	0.613331	-0.144265	-0.180189	-0.755344
35223		4.281088	0.903990	8.670539	-0.001066	0.015420	-0.002960	-0.461426	0.588623	-0.663818	0.613337	-0.144147	-0.179992	-0.755409
35224		4.252937	0.920587	8.680792	-0.002144	0.016914	-0.002531	-0.455078	0.588135	-0.652832	0.613385	-0.144025	-0.179786	-0.755442
35225		4.229550	0.889507	8.706227	0.002075	0.006908	-0.004639	-0.454590	0.589111	-0.659668	0.613392	-0.143962	-0.179687	-0.755472
35226		4.250221	0.887373	8.708301	0.006160	-0.000835	-0.006482	-0.460205	0.581299	-0.658691	0.613388	-0.143935	-0.179701	-0.755477
35227		4.250120	0.907477	8.694895	0.009769	-0.003273	-0.009267	-0.459473	0.584473	-0.659668	0.613342	-0.143894	-0.179776	-0.755505
35228		4.268027	0.922802	8.674226	0.007219	-0.004876	-0.005569	-0.458252	0.576904	-0.659180	0.613325	-0.143897	-0.179829	-0.755505
35229		4.276189	0.927221	8.691574	0.005759	0.000261	-0.004674	-0.460693	0.581787	-0.657715	0.613334	-0.143862	-0.179840	-0.755502
35230		4.257484	0.919277	8.679450	0.003333	0.002318	-0.004633	-0.457764	0.586182	-0.652832	0.613327	-0.143828	-0.179798	-0.755524
35231		4.234825	0.911741	8.712008	0.005982	0.002025	-0.004557	-0.450439	0.586670	-0.654785	0.613320	-0.143781	-0.179769	-0.755546
35232		4.280475	0.893277	8.705407	0.005082	0.000658	-0.006056	-0.453613	0.583008	-0.654053	0.613325	-0.143750	-0.179758	-0.755550
35233		4.252355	0.937443	8.690184	0.006334	0.007214	-0.005730	-0.455322	0.588135	-0.650391	0.613339	-0.143646	-0.179707	-0.755571
35234		4.241074	0.926953	8.675228	0.001352	0.007902	-0.004360	-0.466064	0.589844	-0.659180	0.613337	-0.143581	-0.179582	-0.755614
35235		4.227773	0.893919	8.696517	0.003202	0.004348	-0.002003	-0.459717	0.590088	-0.663086	0.613334	-0.143539	-0.179500	-0.755644
35236		4.251935	0.878942	8.688124	0.007980	-0.001016	-0.006182	-0.463867	0.581299	-0.664551	0.613323	-0.143501	-0.179529	-0.755653
35237		4.257880	0.923837	8.700814	0.007615	-0.000287	-0.008412	-0.455078	0.586182	-0.657715	0.613286	-0.143448	-0.179565	-0.755685
35238		4.249663	0.923464	8.683062	0.004945	0.002918	-0.005799	-0.461426	0.579346	-0.663330	0.613287	-0.143396	-0.179534	-0.755701
35239		4.206624	0.914902	8.692439	0.006071	0.000593	-0.005525	-0.455322	0.583252	-0.654053	0.613284	-0.143352	-0.179548	-0.755709
35240		4.230297	0.891614	8.685425	0.012591	-0.009206	-0.007404	-0.462646	0.577881	-0.664551	0.613246	-0.143352	-0.179680	-0.755708
35241		4.242205	0.907456	8.699502	0.015557	-0.014624	-0.009520	-0.453369	0.588623	-0.652100	0.613187	-0.143369	-0.179910	-0.755698
35242		4.241865	0.942096	8.694723	0.014040	-0.016889	-0.006954	-0.456055	0.584717	-0.657715	0.613137	-0.143436	-0.180100	-0.755680
35243		4.261893	0.914473	8.700578	0.015519	-0.019486	-0.009204	-0.462646	0.589844	-0.653076	0.613073	-0.143507	-0.180347	-0.755660
35244		4.274634	0.916168	8.694690	0.013498	-0.018760	-0.008607	-0.458740	0.592773	-0.654541	0.612968	-0.143592	-0.180534	-0.755685
35245		4.303628	0.929918	8.669172	0.011224	-0.011194	-0.006465	-0.460938	0.586914	-0.656494	0.612916	-0.143630	-0.180643	-0.755693
35246		4.297899	0.926467	8.682983	0.003525	0.001762	-0.005554	-0.456055	0.594971	-0.653809	0.612891	-0.143602	-0.180593	-0.755731
35247		4.268114	0.942397	8.683126	-0.002340	0.008853	-0.003307	-0.458740	0.587646	-0.653564	0.612898	-0.143565	-0.180412	-0.755776
35248		4.251229	0.902198	8.674917	-0.002119	0.010617	-0.003192	-0.461182	0.590576	-0.659668	0.612903	-0.143504	-0.180231	-0.755826
35249		4.246582	0.929860	8.705380	0.000301	0.008789	-0.005611	-0.460449	0.587646	-0.666016	0.612892	-0.143435	-0.180098	-0.755880
35250		4.286152	0.925896	8.677926	-0.005400	0.010471	-0.003944	-0.458496	0.579102	-0.661133	0.612916	-0.143394	-0.179921	-0.755911
35251		4.268541	0.916466	8.676382	-0.007878	0.018587	-0.000897	-0.458008	0.579590	-0.662842	0.612983	-0.143297	-0.179660	-0.755936
35252		4.235938	0.912612	8.691390	-0.008945	0.022622	-0.001824	-0.460938	0.583252	-0.662354	0.613054	-0.143167	-0.179365	-0.755974
35253		4.205991	0.901005	8.717048	-0.005110	0.013717	-0.002110	-0.459473	0.582520	-0.656982	0.613087	-0.143095	-0.179158	-0.756009
35254		4.214575	0.876838	8.706110	0.007371	0.000862	-0.005848	-0.450928	0.591309	-0.661621	0.613066	-0.143040	-0.179162	-0.756036
35255		4.232538	0.924024	8.691572	0.011159	-0.007211	-0.006836	-0.468018	0.583984	-0.664062	0.613072	-0.143038	-0.179275	-0.756005
35256		4.231996	0.917401	8.692806	0.008058	-0.004991	-0.005805	-0.457275	0.586670	-0.658447	0.613021	-0.143031	-0.179332	-0.756034
35257		4.238630	0.898526	8.692648	0.007257	-0.008022	-0.005892	-0.458008	0.582031	-0.658447	0.612991	-0.143065	-0.179401	-0.756036
35258		4.253536	0.914312	8.716131	0.009540	-0.007587	-0.008052	-0.453857	0.586670	-0.655518	0.612947	-0.143069	-0.179502	-0.756047
35259		4.244337	0.939790	8.673493	0.006238	-0.004817	-0.006113	-0.462402	0.584473	-0.647949	0.612927	-0.143082	-0.179533	-0.756053
35260		4.240598	0.927551	8.698435	0.002666	-0.002981	-0.004993	-0.456543	0.580811	-0.653809	0.612848	-0.143107	-0.179479	-0.756125
35261		4.234301	0.891323	8.706470	0.004486	-0.003157	-0.004691	-0.457520	0.583740	-0.664551	0.612830	-0.143116	-0.179483	-0.756137
35262		4.257469	0.916211	8.692747	0.005066	-0.001890	-0.004721	-0.460938	0.588379	-0.653564	0.612848	-0.143106	-0.179511	-0.756117
35263		4.259174	0.927038	8.690484	0.003575	0.000931	-0.004853	-0.460449	0.582031	-0.653320	0.612804	-0.143090	-0.179446	-0.756172
35264		4.226068	0.910214	8.675232	0.001035	0.002102	-0.004869	-0.459717	0.580322	-0.658936	0.612767	-0.143075	-0.179365	-0.756224
35265		4.225340	0.930407	8.715690	0.003742	0.000758	-0.001714	-0.455322	0.580811	-0.658936	0.612789	-0.143056	-0.179340	-0.756216
35266		4.224016	0.890712	8.711330	0.006538	-0.007028	-0.005611	-0.453125	0.585205	-0.663818	0.612783	-0.143082	-0.179416	-0.756197
35267		4.263113	0.907667	8.713278	0.012710	-0.008323	-0.007369	-0.463867	0.585693	-0.658203	0.612796	-0.143071	-0.179573	-0.756152
35268		4.241328	0.936935	8.718626	0.011128	-0.004069	-0.006539	-0.460449	0.583496	-0.658936	0.612741	-0.143035	-0.179636	-0.756188
35269		4.247305	0.930319	8.684775	0.002493	0.002424	-0.004425	-0.460205	0.583984	-0.659912	0.612730	-0.143007	-0.179579	-0.756216
35270		4.244581	0.921294	8.687359	-0.002361	0.006305	-0.001965	-0.465088	0.581787	-0.657715	0.612747	-0.142985	-0.179445	-0.756238
35271		4.249885	0.909405	8.686864	-0.001412	0.009613	-0.003496	-0.461914	0.587891	-0.656494	0.612723	-0.142919	-0.179285	-0.756308
35272		4.230988	0.928551	8.713946	-0.001313	0.007955	-0.002083	-0.465820	0.581055	-0.664795	0.612713	-0.142878	-0.179121	-0.756362
35273		4.234562	0.907371	8.715574	-0.000684	0.008392	-0.001407	-0.460449	0.580566	-0.656250	0.612733	-0.142818	-0.179001	-0.756386
35274		4.243387	0.914392	8.710766	-0.001220	0.006521	-0.003048	-0.456299	0.581787	-0.658936	0.612726	-0.142780	-0.178872	-0.756429
35275		4.232090	0.901755	8.696114	-0.006547	0.010016	-0.000505	-0.453613	0.594482	-0.661377	0.612775	-0.142756	-0.178678	-0.756440
35276		4.229625	0.901129	8.697378	-0.001084	0.012259	-0.003331	-0.460205	0.579590	-0.652832	0.612818	-0.142677	-0.178502	-0.756462
35277		4.204993	0.892606	8.731029	0.001500	0.010484	-0.004985	-0.457520	0.583984	-0.661865	0.612790	-0.142576	-0.178362	-0.756536
35278		4.216606	0.887703	8.716080	0.004292	0.007935	-0.005168	-0.455078	0.590088	-0.666504	0.612807	-0.142479	-0.178296	-0.756556
35279		4.210617	0.905322	8.694750	0.004074	0.006170	-0.005281	-0.459961	0.588135	-0.661621	0.612844	-0.142405	-0.178246	-0.756552
35280		4.198980	0.900125	8.700718	0.007228	0.003123	-0.005606	-0.451172	0.591797	-0.665771	0.612826	-0.142334	-0.178225	-0.756585
35281		4.200286	0.911473	8.698583	0.005492	-0.000677	-0.005514	-0.455566	0.583008	-0.657471	0.612864	-0.142316	-0.178241	-0.756554
35282		4.214248	0.894762	8.716498	0.006915	-0.007747	-0.003367	-0.459473	0.577637	-0.660400	0.612856	-0.142352	-0.178303	-0.756539
35283		4.208653	0.908416	8.716936	0.006866	-0.006919	-0.004076	-0.454834	0.583496	-0.655518	0.612841	-0.142371	-0.178379	-0.756530
35284		4.217253	0.930160	8.720731	0.004844	-0.006195	-0.003474	-0.465332	0.579102	-0.661865	0.612828	-0.142410	-0.178402	-0.756528
35285		4.232648	0.908094	8.717282	0.004794	-0.005366	-0.004183	-0.457764	0.583740	-0.659668	0.612779	-0.142429	-0.178435	-0.756556
35286		4.241947	0.892861	8.693983	0.005154	-0.005865	-0.004326	-0.454834	0.583008	-0.657959	0.612761	-0.142458	-0.178470	-0.756557
35287		4.235481	0.906392	8.694847	0.005532	-0.001284	-0.007190	-0.461182	0.588867	-0.660889	0.612739	-0.142436	-0.178481	-0.756576
35288		4.221552	0.914102	8.710622	0.003684	0.001810	-0.004804	-0.457764	0.588135	-0.652344	0.612707	-0.142408	-0.178423	-0.756621
35289		4.220349	0.900765	8.691695	0.001662	0.002535	-0.004201	-0.454102	0.588867	-0.659424	0.612661	-0.142396	-0.178314	-0.756686
35290		4.190933	0.904380	8.725561	0.002218	-0.001054	-0.003890	-0.459473	0.588379	-0.666016	0.612667	-0.142411	-0.178275	-0.756687
35291		4.207216	0.909029	8.707025	0.005610	-0.007797	-0.005434	-0.454834	0.582275	-0.654785	0.612647	-0.142454	-0.178339	-0.756681
35292		4.220163	0.900820	8.713357	0.008968	-0.011395	-0.006669	-0.457520	0.581787	-0.657471	0.612600	-0.142503	-0.178448	-0.756684
35293		4.225616	0.922184	8.707799	0.008982	-0.009079	-0.005652	-0.457031	0.583984	-0.656494	0.612565	-0.142529	-0.178544	-0.756685
35294		4.239596	0.923039	8.712335	0.003552	-0.003929	-0.004522	-0.456787	0.588623	-0.654785	0.612538	-0.142555	-0.178537	-0.756703
35295		4.238574	0.914921	8.714022	0.003660	-0.003047	-0.004467	-0.457764	0.590820	-0.659424	0.612500	-0.142579	-0.178501	-0.756738
35296		4.235649	0.897624	8.717942	0.004909	-0.001947	-0.005494	-0.450439	0.585449	-0.656494	0.612469	-0.142581	-0.178482	-0.756767
35297		4.220701	0.907990	8.701470	0.002700	0.001646	-0.002963	-0.457031	0.581299	-0.667236	0.612512	-0.142567	-0.178434	-0.756747
35298		4.220060	0.908748	8.701702	0.000937	0.003528	-0.003917	-0.459961	0.590332	-0.651855	0.612561	-0.142531	-0.178404	-0.756721
35299		4.220914	0.906689	8.733976	0.003090	-0.001776	-0.005797	-0.462646	0.589111	-0.661133	0.612471	-0.142549	-0.178326	-0.756808
35300		4.224661	0.907258	8.689270	0.003732	0.000981	-0.004102	-0.453125	0.579346	-0.669922	0.612435	-0.142531	-0.178272	-0.756854
35301		4.220072	0.895004	8.714723	0.005125	-0.000183	-0.005385	-0.459961	0.588135	-0.659668	0.612514	-0.142489	-0.178343	-0.756781
35302		4.202093	0.918830	8.708305	0.005589	-0.002336	-0.004111	-0.458740	0.585205	-0.660156	0.612485	-0.142488	-0.178334	-0.756807
35303		4.227552	0.904048	8.699442	0.006255	-0.005042	-0.003745	-0.455566	0.581055	-0.651855	0.612470	-0.142504	-0.178367	-0.756808
35304		4.231901	0.907062	8.707901	0.005443	-0.000074	-0.003859	-0.456299	0.586670	-0.655762	0.612450	-0.142480	-0.178339	-0.756835
35305		4.226811	0.911907	8.720219	0.001760	0.000876	-0.002789	-0.466064	0.586182	-0.664062	0.612442	-0.142482	-0.178262	-0.756859
35306		4.228250	0.890259	8.712153	0.002165	-0.000230	-0.004604	-0.457520	0.584961	-0.657959	0.612388	-0.142479	-0.178217	-0.756914
35307		4.209964	0.913383	8.705942	0.003739	0.000760	-0.001724	-0.452393	0.585205	-0.664551	0.612399	-0.142465	-0.178172	-0.756919
35308		4.213815	0.884054	8.708760	0.004397	-0.001726	-0.003738	-0.453369	0.592529	-0.662842	0.612457	-0.142460	-0.178201	-0.756866
35309		4.207194	0.897565	8.709670	0.007344	-0.003998	-0.005540	-0.457520	0.589355	-0.661865	0.612468	-0.142464	-0.178239	-0.756847
35310		4.220063	0.916036	8.701292	0.006514	-0.003886	-0.005309	-0.459961	0.583496	-0.653564	0.612451	-0.142468	-0.178263	-0.756855
35311		4.226055	0.928233	8.707622	0.003524	-0.001005	-0.001836	-0.453369	0.590820	-0.657959	0.612415	-0.142474	-0.178206	-0.756896
35312		4.217198	0.899659	8.705134	0.001802	0.000267	-0.004463	-0.458984	0.584961	-0.663086	0.612414	-0.142484	-0.178139	-0.756911
35313		4.198046	0.896140	8.714109	0.004918	-0.002169	-0.003119	-0.454834	0.584229	-0.658203	0.612421	-0.142480	-0.178151	-0.756903
35314		4.213934	0.900850	8.695714	0.004651	-0.003107	-0.003939	-0.462646	0.589844	-0.653320	0.612424	-0.142490	-0.178159	-0.756897
35315		4.213562	0.907237	8.716465	0.003713	-0.003877	-0.003762	-0.456299	0.584473	-0.653320	0.612331	-0.142528	-0.178095	-0.756980
35316		4.223310	0.888738	8.725837	0.003983	-0.000402	-0.004308	-0.455078	0.586182	-0.654785	0.612298	-0.142521	-0.178048	-0.757019
35317		4.203499	0.903240	8.721617	0.007145	-0.000909	-0.006002	-0.460938	0.591309	-0.662842	0.612268	-0.142493	-0.178042	-0.757050
35318		4.218146	0.913858	8.724433	0.007133	-0.003229	-0.007020	-0.452148	0.588135	-0.662842	0.612213	-0.142485	-0.178058	-0.757092
35319		4.216686	0.892400	8.706918	0.008429	-0.005494	-0.005978	-0.458008	0.592529	-0.663330	0.612238	-0.142486	-0.178139	-0.757053
35320		4.214147	0.893940	8.697113	0.011897	-0.008209	-0.007163	-0.448486	0.577881	-0.659424	0.612201	-0.142491	-0.178244	-0.757057
35321		4.197789	0.919255	8.689690	0.010064	-0.010360	-0.008482	-0.447998	0.587891	-0.659912	0.612224	-0.142505	-0.178416	-0.756995
35322		4.241272	0.920022	8.713617	0.005107	-0.005044	-0.005051	-0.462646	0.581787	-0.656006	0.612270	-0.142533	-0.178456	-0.756943
35323		4.210979	0.912642	8.695784	0.003565	-0.001616	-0.003514	-0.452148	0.587646	-0.655029	0.612212	-0.142536	-0.178418	-0.756998
35324		4.215732	0.897825	8.717588	0.003246	-0.001729	-0.005043	-0.458496	0.585693	-0.656982	0.612205	-0.142551	-0.178380	-0.757010
35325		4.218026	0.908976	8.714913	0.007438	-0.005439	-0.006517	-0.449707	0.588135	-0.661865	0.612148	-0.142560	-0.178413	-0.757047
35326		4.215164	0.909804	8.705334	0.006607	-0.005327	-0.006285	-0.453125	0.588867	-0.664551	0.612184	-0.142575	-0.178477	-0.757000
35327		4.237525	0.908433	8.706556	0.005522	-0.003834	-0.005854	-0.449707	0.585205	-0.667969	0.612213	-0.142582	-0.178520	-0.756965
35328		4.244988	0.930242	8.710722	0.004129	-0.000133	-0.005935	-0.454102	0.582764	-0.668701	0.612299	-0.142554	-0.178563	-0.756891
35329		4.216916	0.909878	8.683235	0.005237	0.003014	-0.004333	-0.461426	0.580811	-0.663330	0.612381	-0.142485	-0.178590	-0.756831
35330		4.211442	0.915315	8.695679	0.005694	0.001079	-0.005441	-0.463135	0.582275	-0.657959	0.612361	-0.142431	-0.178597	-0.756856
35331		4.205641	0.894156	8.723183	0.006151	-0.003392	-0.005181	-0.458008	0.585205	-0.662842	0.612289	-0.142426	-0.178603	-0.756914
35332		4.221151	0.917300	8.691282	0.011026	-0.004951	-0.006639	-0.447266	0.581787	-0.659912	0.612272	-0.142395	-0.178697	-0.756911
35333		4.231415	0.932302	8.706074	0.009003	-0.004229	-0.006029	-0.459961	0.583008	-0.661133	0.612334	-0.142372	-0.178793	-0.756842
35334		4.226261	0.923881	8.698989	0.006778	-0.000416	-0.005877	-0.450684	0.583252	-0.659180	0.612304	-0.142331	-0.178804	-0.756872
35335		4.212820	0.914534	8.728045	0.005437	0.002458	-0.005248	-0.452148	0.585205	-0.658936	0.612347	-0.142278	-0.178792	-0.756850
35336		4.209412	0.909976	8.698056	0.006671	0.001235	-0.007301	-0.455566	0.584473	-0.652588	0.612353	-0.142226	-0.178791	-0.756854
35337		4.208469	0.929357	8.684748	0.005426	0.000136	-0.006266	-0.460449	0.582764	-0.657471	0.612301	-0.142205	-0.178744	-0.756912
35338		4.214652	0.924683	8.704425	0.006204	-0.001686	-0.005843	-0.455566	0.581787	-0.656006	0.612240	-0.142185	-0.178737	-0.756967
35339		4.219600	0.910584	8.726122	0.005162	-0.003340	-0.005716	-0.460693	0.587646	-0.661133	0.612207	-0.142190	-0.178742	-0.756991
35340		4.222088	0.933832	8.689066	0.004118	-0.002460	-0.006959	-0.460938	0.584473	-0.661865	0.612143	-0.142196	-0.178720	-0.757047
35341		4.228165	0.928531	8.708866	0.002008	0.002023	-0.004368	-0.459473	0.576172	-0.665527	0.612116	-0.142174	-0.178658	-0.757088
35342		4.222110	0.918694	8.702386	0.001689	0.001908	-0.005899	-0.461182	0.585205	-0.665771	0.612118	-0.142130	-0.178654	-0.757095
35343		4.210848	0.912654	8.708389	0.002166	0.004615	-0.004974	-0.460449	0.581299	-0.661621	0.612110	-0.142078	-0.178591	-0.757127
35344		4.210988	0.908758	8.687497	0.004605	0.002569	-0.005019	-0.452637	0.590820	-0.656982	0.612087	-0.142023	-0.178561	-0.757162
35345		4.206223	0.928683	8.718861	0.005746	0.000251	-0.004740	-0.452393	0.591797	-0.666260	0.612088	-0.142010	-0.178515	-0.757175
35346		4.218139	0.914602	8.705176	0.002105	0.000584	-0.005333	-0.458008	0.582275	-0.661133	0.612132	-0.142008	-0.178480	-0.757148
35347		4.202593	0.924547	8.688941	0.003209	0.003735	-0.003734	-0.446289	0.584229	-0.658936	0.612135	-0.141958	-0.178426	-0.757168
35348		4.202633	0.908170	8.702398	0.002062	0.001197	-0.003659	-0.461670	0.584229	-0.659912	0.612214	-0.141949	-0.178392	-0.757113
35349		4.213962	0.913476	8.728987	0.003563	0.000915	-0.004893	-0.457031	0.582031	-0.664551	0.612157	-0.141928	-0.178338	-0.757176
35350		4.202619	0.925261	8.721395	0.004436	0.000188	-0.006803	-0.451416	0.586914	-0.662354	0.612152	-0.141890	-0.178349	-0.757185
35351		4.220145	0.922263	8.714275	0.004331	-0.000695	-0.006856	-0.457031	0.587891	-0.656006	0.612171	-0.141875	-0.178349	-0.757172
35352		4.194799	0.925738	8.703373	0.005172	-0.001018	-0.004704	-0.462158	0.576416	-0.661865	0.612126	-0.141874	-0.178299	-0.757221
35353		4.225752	0.904351	8.714863	0.003765	0.000358	-0.005805	-0.457520	0.586182	-0.652832	0.612075	-0.141834	-0.178296	-0.757270
35354		4.211907	0.911921	8.730594	0.004810	-0.000520	-0.004562	-0.456055	0.590576	-0.665527	0.612010	-0.141833	-0.178227	-0.757339
35355		4.211298	0.930951	8.717110	0.005843	-0.001189	-0.005706	-0.454346	0.592529	-0.667236	0.612016	-0.141817	-0.178230	-0.757336
35356		4.197958	0.892799	8.707641	0.008588	-0.007761	-0.006250	-0.450928	0.582764	-0.662354	0.612029	-0.141843	-0.178315	-0.757301
35357		4.209167	0.908148	8.721905	0.012572	-0.010704	-0.009208	-0.459961	0.589600	-0.659668	0.612028	-0.141845	-0.178492	-0.757259
35358		4.222116	0.933412	8.733812	0.012474	-0.009265	-0.008250	-0.454102	0.586914	-0.666748	0.611939	-0.141858	-0.178583	-0.757308
35359		4.227021	0.935356	8.688304	0.007654	-0.003679	-0.006432	-0.450684	0.581543	-0.666504	0.611967	-0.141841	-0.178651	-0.757273
35360		4.208179	0.932621	8.697131	0.005170	-0.001020	-0.004712	-0.454102	0.583740	-0.660889	0.612047	-0.141809	-0.178702	-0.757201
35361		4.198806	0.910644	8.715741	0.011239	-0.003185	-0.006559	-0.455811	0.584229	-0.660645	0.612050	-0.141762	-0.178780	-0.757189
35362		4.229580	0.939610	8.719172	0.006984	-0.003509	-0.005434	-0.457275	0.580811	-0.668945	0.612038	-0.141756	-0.178809	-0.757194
35363		4.215672	0.933060	8.715668	0.006160	-0.001074	-0.004184	-0.459961	0.585938	-0.665283	0.612081	-0.141714	-0.178865	-0.757154
35364		4.205659	0.927930	8.721007	0.007144	-0.003451	-0.004669	-0.462646	0.583008	-0.659668	0.612064	-0.141704	-0.178899	-0.757161
35365		4.219010	0.914839	8.706569	0.009314	-0.008762	-0.006549	-0.453613	0.583008	-0.661621	0.611968	-0.141727	-0.178971	-0.757217
35366		4.209797	0.927774	8.697787	0.010053	-0.009964	-0.004450	-0.453369	0.583740	-0.657959	0.611984	-0.141757	-0.179092	-0.757171
35367		4.212289	0.945248	8.715481	0.011134	-0.008927	-0.006261	-0.459229	0.583008	-0.659424	0.611967	-0.141772	-0.179195	-0.757157
35368		4.215101	0.930724	8.727499	0.009803	-0.011115	-0.002883	-0.449951	0.577881	-0.658936	0.611933	-0.141823	-0.179291	-0.757152
35369		4.221837	0.914777	8.694813	0.008854	-0.011682	-0.005090	-0.452148	0.578369	-0.662598	0.611961	-0.141869	-0.179433	-0.757087
35370		4.222613	0.940035	8.701140	0.009927	-0.012971	-0.007916	-0.458496	0.583740	-0.659180	0.611964	-0.141907	-0.179611	-0.757035
35371		4.218567	0.937191	8.714256	0.008958	-0.010800	-0.005043	-0.462646	0.582275	-0.662109	0.611917	-0.141960	-0.179698	-0.757043
35372		4.241751	0.921864	8.695791	0.008957	-0.010801	-0.005046	-0.460205	0.580322	-0.660156	0.611853	-0.142004	-0.179797	-0.757062
35373		4.222798	0.942254	8.711660	0.009471	-0.008708	-0.005803	-0.458252	0.592041	-0.661377	0.611802	-0.142022	-0.179890	-0.757079
35374		4.240474	0.930510	8.705851	0.006256	-0.007377	-0.004801	-0.461426	0.576904	-0.664551	0.611771	-0.142079	-0.179901	-0.757090
35375		4.243323	0.941585	8.702784	0.004643	-0.005446	-0.004988	-0.453369	0.587891	-0.665771	0.611747	-0.142088	-0.179960	-0.757094
35376		4.234029	0.936133	8.707864	0.005795	-0.005437	-0.003696	-0.458008	0.591309	-0.660400	0.611806	-0.142114	-0.180007	-0.757030
35377		4.212107	0.931961	8.707553	0.008486	-0.006332	-0.005322	-0.462402	0.585693	-0.661377	0.611776	-0.142144	-0.180030	-0.757043
35378		4.227769	0.943243	8.709629	0.010548	-0.007674	-0.007622	-0.465088	0.588867	-0.665527	0.611697	-0.142151	-0.180107	-0.757087
35379		4.241172	0.931028	8.695064	0.012052	-0.005633	-0.007853	-0.456543	0.582520	-0.662109	0.611622	-0.142127	-0.180184	-0.757135
35380		4.211926	0.939556	8.695946	0.008468	-0.006131	-0.007718	-0.456787	0.578613	-0.663330	0.611603	-0.142126	-0.180262	-0.757131
35381		4.221280	0.945370	8.712545	0.010502	-0.009383	-0.006966	-0.456543	0.580322	-0.662354	0.611598	-0.142129	-0.180407	-0.757100
35382		4.243349	0.947822	8.680791	0.011188	-0.009759	-0.005582	-0.460938	0.579834	-0.654785	0.611602	-0.142140	-0.180546	-0.757062
35383		4.232927	0.966004	8.693248	0.008543	-0.007158	-0.004618	-0.454834	0.584961	-0.660156	0.611533	-0.142164	-0.180586	-0.757103
35384		4.225944	0.938936	8.690220	0.009309	-0.008776	-0.006588	-0.456299	0.577637	-0.668945	0.611526	-0.142194	-0.180672	-0.757083
35385		4.236217	0.945017	8.706338	0.012692	-0.014905	-0.006470	-0.447998	0.576416	-0.655029	0.611559	-0.142221	-0.180914	-0.756994
35386		4.245212	0.953665	8.690116	0.009729	-0.010099	-0.006024	-0.454834	0.581787	-0.665039	0.611597	-0.142248	-0.181042	-0.756927
35387		4.236364	0.949157	8.694926	0.008224	-0.004955	-0.005144	-0.460205	0.591064	-0.656250	0.611645	-0.142236	-0.181126	-0.756870
35388		4.235981	0.942358	8.696374	0.009352	-0.007073	-0.007260	-0.458740	0.588867	-0.665283	0.611563	-0.142275	-0.181136	-0.756927
35389		4.251877	0.953684	8.698265	0.009994	-0.009154	-0.005212	-0.451904	0.576660	-0.661133	0.611566	-0.142308	-0.181228	-0.756896
35390		4.262533	0.954040	8.693530	0.008840	-0.009167	-0.006506	-0.455811	0.583984	-0.661133	0.611602	-0.142322	-0.181361	-0.756833
35391		4.248144	0.970506	8.697209	0.007751	-0.007673	-0.006070	-0.468018	0.578369	-0.661133	0.611604	-0.142352	-0.181429	-0.756810
35392		4.232886	0.971949	8.682198	0.007512	-0.006489	-0.003481	-0.461426	0.579834	-0.659180	0.611527	-0.142368	-0.181473	-0.756858
35393		4.255517	0.944373	8.698553	0.006813	-0.010777	-0.006897	-0.460693	0.577881	-0.659668	0.611455	-0.142428	-0.181550	-0.756886
35394		4.264968	0.961598	8.680595	0.008688	-0.004572	-0.005251	-0.467773	0.578125	-0.664795	0.611428	-0.142413	-0.181609	-0.756897
35395		4.245378	0.975947	8.676148	0.003962	-0.000425	-0.004366	-0.458252	0.580566	-0.666504	0.611377	-0.142388	-0.181597	-0.756945
35396		4.242217	0.958652	8.680654	0.004894	0.000348	-0.004557	-0.462646	0.589600	-0.655029	0.611422	-0.142348	-0.181612	-0.756913
35397		4.246016	0.961693	8.689360	0.004265	-0.000102	-0.005228	-0.459717	0.587402	-0.665283	0.611344	-0.142367	-0.181509	-0.756997
35398		4.257077	0.952982	8.696851	0.003902	0.000396	-0.005083	-0.448975	0.581543	-0.660889	0.611356	-0.142354	-0.181473	-0.756999
35399		4.258275	0.963412	8.694583	0.001679	0.001679	-0.003542	-0.455811	0.576416	-0.666504	0.611456	-0.142340	-0.181433	-0.756930
35400		4.255291	0.951913	8.643839	0.001401	0.005590	-0.004726	-0.464355	0.579346	-0.662842	0.611527	-0.142264	-0.181399	-0.756895
35401		4.240527	0.947449	8.694679	0.003559	0.002797	-0.007997	-0.459473	0.578613	-0.661865	0.611461	-0.142211	-0.181357	-0.756968
35402		4.234367	0.969934	8.693628	0.004125	-0.000362	-0.003602	-0.458740	0.575439	-0.664307	0.611470	-0.142191	-0.181346	-0.756968
35403		4.244075	0.937504	8.684198	0.007168	-0.006419	-0.007412	-0.455566	0.579102	-0.661377	0.611456	-0.142183	-0.181446	-0.756957
35404		4.259248	0.980254	8.691703	0.006501	-0.006244	-0.006405	-0.457764	0.579590	-0.657959	0.611461	-0.142196	-0.181512	-0.756934
35405		4.230275	0.955507	8.687403	0.003953	-0.005088	-0.006397	-0.460449	0.578857	-0.669678	0.611425	-0.142227	-0.181518	-0.756955
35406		4.263937	0.944020	8.696085	0.006039	-0.004300	-0.005298	-0.457764	0.584473	-0.660889	0.611449	-0.142210	-0.181596	-0.756921
35407		4.248402	0.971576	8.665798	0.004726	-0.002048	-0.006343	-0.462646	0.582031	-0.656494	0.611437	-0.142213	-0.181581	-0.756933
35408		4.258800	0.968331	8.694312	0.003434	0.000008	-0.004992	-0.466797	0.578613	-0.666748	0.611372	-0.142216	-0.181510	-0.757002
35409		4.247908	0.947898	8.681195	0.003207	-0.001567	-0.007489	-0.465820	0.586182	-0.660889	0.611302	-0.142199	-0.181513	-0.757062
35410		4.247171	0.981332	8.686600	0.004145	0.003870	-0.005655	-0.463623	0.583984	-0.655273	0.611235	-0.142161	-0.181417	-0.757146
35411		4.250526	0.952045	8.690358	0.000563	0.003367	-0.005503	-0.462402	0.582764	-0.667725	0.611150	-0.142162	-0.181277	-0.757248
35412		4.244960	0.956671	8.702953	0.002142	0.002064	-0.003642	-0.462891	0.575928	-0.660400	0.611166	-0.142134	-0.181234	-0.757251
35413		4.235148	0.945280	8.687767	0.003536	0.000892	-0.004944	-0.458252	0.578369	-0.664307	0.611126	-0.142102	-0.181205	-0.757296
35414		4.241916	0.967129	8.691835	0.006085	-0.000263	-0.004954	-0.456543	0.583496	-0.663330	0.611151	-0.142057	-0.181230	-0.757278
35415		4.236221	0.957632	8.685325	0.002343	0.001502	-0.004556	-0.454102	0.584229	-0.667969	0.611183	-0.142041	-0.181181	-0.757267
35416		4.256475	0.961118	8.708245	0.003699	0.000956	-0.004178	-0.462402	0.577881	-0.657471	0.611266	-0.142010	-0.181176	-0.757207
35417		4.246624	0.949797	8.693076	0.002282	0.002322	-0.005274	-0.458740	0.591309	-0.661377	0.611207	-0.141986	-0.181100	-0.757277
35418		4.242550	0.964258	8.703291	0.004205	0.003048	-0.004942	-0.454834	0.579102	-0.655518	0.611204	-0.141968	-0.181005	-0.757305
35419		4.251222	0.931357	8.694508	0.002908	0.000440	-0.005617	-0.458496	0.579834	-0.664551	0.611195	-0.141961	-0.180953	-0.757326
35420		4.239074	0.948329	8.707874	0.004728	-0.002050	-0.006347	-0.455811	0.587891	-0.651123	0.611193	-0.141944	-0.180974	-0.757326
35421		4.240103	0.976910	8.691626	0.007478	-0.003767	-0.007271	-0.447510	0.585449	-0.661621	0.611129	-0.141974	-0.180935	-0.757382
35422		4.246377	0.958431	8.692249	0.008347	-0.002173	-0.008182	-0.463379	0.583008	-0.667480	0.611197	-0.141943	-0.180980	-0.757322
35423		4.229247	0.991702	8.683303	0.004667	0.001102	-0.006055	-0.462891	0.579834	-0.658691	0.611175	-0.141902	-0.180964	-0.757351
35424		4.236184	0.955370	8.697624	0.006346	-0.003979	-0.006168	-0.462891	0.571045	-0.671387	0.611100	-0.141909	-0.180973	-0.757408
35425		4.238023	0.952404	8.675782	0.010089	-0.005742	-0.006568	-0.459961	0.580811	-0.660889	0.611100	-0.141846	-0.181136	-0.757381
35426		4.227446	0.985306	8.707296	0.007438	-0.005474	-0.006608	-0.455811	0.582275	-0.654785	0.611058	-0.141854	-0.181180	-0.757403
35427		4.232870	0.968705	8.675404	0.006004	-0.006007	-0.004639	-0.459473	0.583984	-0.665039	0.611036	-0.141900	-0.181182	-0.757412
35428		4.236190	0.937394	8.701369	0.014536	-0.008310	-0.009666	-0.465332	0.585938	-0.650146	0.610999	-0.141872	-0.181329	-0.757411
35429		4.236143	0.964488	8.707613	0.017348	-0.010848	-0.009878	-0.460693	0.579834	-0.664307	0.610826	-0.141893	-0.181422	-0.757525
35430		4.230541	1.012602	8.712523	0.015551	-0.010883	-0.007764	-0.462402	0.579834	-0.659424	0.610793	-0.141878	-0.181605	-0.757510
35431		4.253081	0.971907	8.709922	0.010676	-0.009333	-0.006256	-0.463379	0.574219	-0.660400	0.610729	-0.141903	-0.181698	-0.757535
35432		4.227758	0.952336	8.681581	0.012233	-0.012775	-0.007807	-0.455811	0.578369	-0.665771	0.610646	-0.141928	-0.181862	-0.757558
35433		4.233946	0.989660	8.693892	0.015574	-0.013411	-0.006390	-0.463379	0.587646	-0.654297	0.610678	-0.141930	-0.182086	-0.757478
35434		4.251681	0.996329	8.673976	0.010537	-0.011926	-0.005644	-0.465332	0.576172	-0.659180	0.610577	-0.142020	-0.182131	-0.757531
35435		4.265480	0.988757	8.680067	0.007121	-0.012367	-0.004717	-0.464111	0.584229	-0.660156	0.610496	-0.142097	-0.182219	-0.757561
35436		4.249005	0.986421	8.687986	0.010436	-0.012813	-0.005699	-0.459229	0.579102	-0.656982	0.610424	-0.142171	-0.182316	-0.757582
35437		4.228659	0.956952	8.702689	0.014542	-0.017411	-0.007272	-0.464111	0.575439	-0.665039	0.610366	-0.142244	-0.182507	-0.757570
35438		4.265134	0.991686	8.679979	0.016754	-0.022927	-0.006775	-0.468262	0.581543	-0.654053	0.610309	-0.142326	-0.182807	-0.757528
35439		4.276856	1.015520	8.681207	0.010188	-0.022858	-0.004096	-0.464844	0.582275	-0.659912	0.610168	-0.142512	-0.182948	-0.757572
35440		4.280008	1.008233	8.681079	0.005251	-0.020488	-0.003293	-0.467529	0.581299	-0.668213	0.610098	-0.142700	-0.183057	-0.757567
35441		4.268544	0.991737	8.678396	0.005816	-0.019216	-0.003348	-0.465820	0.583984	-0.664795	0.610057	-0.142848	-0.183206	-0.757536
35442		4.272613	0.967734	8.691874	0.011977	-0.022833	-0.006242	-0.461426	0.572754	-0.662842	0.609989	-0.142991	-0.183420	-0.757512
35443		4.309356	0.988002	8.649765	0.020956	-0.027100	-0.012435	-0.460205	0.572754	-0.665771	0.609910	-0.143061	-0.183814	-0.757467
35444		4.318998	1.036031	8.658356	0.014765	-0.018626	-0.009923	-0.461670	0.575684	-0.658203	0.609893	-0.143097	-0.184097	-0.757405
35445		4.273849	1.080550	8.670700	0.004066	-0.013321	-0.003957	-0.469238	0.582031	-0.659668	0.609873	-0.143207	-0.184173	-0.757382
35446		4.251905	0.997028	8.685296	-0.003462	-0.021845	0.004738	-0.465820	0.581299	-0.654297	0.609841	-0.143494	-0.184191	-0.757349
35447		4.212353	0.963543	8.720340	0.010530	-0.046854	0.004958	-0.467041	0.571777	-0.659424	0.609784	-0.143920	-0.184519	-0.757234
35448		4.221718	0.971381	8.725429	0.028513	-0.082048	0.001452	-0.462402	0.574219	-0.657227	0.609677	-0.144492	-0.185361	-0.757006
35449		4.121957	1.008931	8.786603	0.060938	-0.147595	0.007075	-0.470703	0.575928	-0.658447	0.609568	-0.145457	-0.186990	-0.756508
35450		4.077389	1.058119	8.865185	0.127065	-0.267669	0.031389	-0.479248	0.568848	-0.660400	0.609479	-0.147116	-0.190099	-0.755483
35451		4.057537	1.023678	8.940239	0.204550	-0.438862	0.063148	-0.486084	0.571289	-0.651611	0.609390	-0.149850	-0.195211	-0.753712
35452		3.839718	0.922514	9.122918	0.251006	-0.714520	0.061240	-0.490723	0.568604	-0.645264	0.608615	-0.154848	-0.202795	-0.751321
35453		3.562897	0.967553	9.355881	0.351365	-1.182593	0.066300	-0.505615	0.562012	-0.636719	0.606841	-0.163466	-0.214839	-0.747574
35454		5.006972	0.333108	9.288870	0.688420	-1.505779	0.035405	-0.522949	0.549316	-0.630615	0.604429	-0.172397	-0.232492	-0.742221
35455		5.816382	0.593774	9.338447	0.927472	-1.405114	0.107595	-0.549072	0.536865	-0.617920	0.603303	-0.178695	-0.251384	-0.735459
35456		5.668606	0.044488	10.562189	1.301302	-0.900965	0.285384	-0.558838	0.516113	-0.628906	0.605889	-0.178054	-0.269363	-0.727076
35457		1.437314	-0.821438	12.297962	1.444282	0.185498	0.462979	-0.541504	0.498291	-0.645996	0.613872	-0.166945	-0.279964	-0.718965
35458		0.291067	-2.814892	13.423884	1.112729	1.141788	1.017072	-0.513184	0.486084	-0.675049	0.629238	-0.151639	-0.278943	-0.709405
35459		-0.996514	-5.219373	11.983932	0.685916	1.980194	1.837419	-0.441406	0.496582	-0.713379	0.653392	-0.134953	-0.265762	-0.695872
35460		-0.061808	-3.134236	11.504979	0.392420	2.313154	2.361128	-0.367432	0.495850	-0.732422	0.681872	-0.119262	-0.246029	-0.678452
35461		1.708587	-2.496086	11.271818	0.325451	2.447061	2.572507	-0.281494	0.508057	-0.750732	0.711050	-0.103494	-0.223749	-0.658508
35462		3.803238	-1.000471	10.841355	0.062816	2.373946	2.782124	-0.207520	0.514648	-0.760010	0.739941	-0.091054	-0.199192	-0.636018
35463		6.471656	-1.485667	10.961082	0.025961	2.266366	3.057468	-0.127441	0.512207	-0.761230	0.769071	-0.080295	-0.174587	-0.609591
35464		7.920473	-1.369540	9.670620	0.416722	2.326197	3.218519	-0.048584	0.500977	-0.767578	0.798105	-0.065484	-0.151814	-0.579390
35465		7.512284	-1.291152	6.873454	0.431310	2.042941	3.420982	0.022949	0.490479	-0.765625	0.826089	-0.052797	-0.131440	-0.545448
35466		7.928078	-0.583856	5.362568	0.497632	1.465372	3.399366	0.084229	0.484131	-0.754883	0.851093	-0.043203	-0.117198	-0.509940
35467		7.762994	0.377177	4.255393	0.511949	0.848095	3.018861	0.135254	0.454834	-0.754639	0.871187	-0.036755	-0.109611	-0.477145
35468		8.550707	0.341555	4.637217	0.365295	0.328717	2.565119	0.153809	0.444824	-0.756348	0.886653	-0.034337	-0.106879	-0.448603
35469		8.897736	0.517105	4.783298	0.257534	0.195443	2.237789	0.183350	0.431396	-0.756348	0.899239	-0.033399	-0.105072	-0.423337
35470		8.052192	1.154508	3.795777	0.106790	-0.162341	1.982816	0.196289	0.431885	-0.743408	0.909309	-0.035698	-0.106532	-0.400666
35471		8.681161	2.153105	4.104673	0.038020	-0.688985	1.772304	0.196289	0.434082	-0.750488	0.917057	-0.041121	-0.113674	-0.379993
35472		4.173995	3.005643	8.790632	0.185616	-1.059633	1.397101	0.199707	0.423584	-0.758545	0.922091	-0.046062	-0.125908	-0.363007
35473		-6.984813	4.405155	14.245588	-0.209265	-0.907888	0.764140	0.191895	0.418457	-0.760986	0.923933	-0.053850	-0.134923	-0.353899
35474		0.075181	4.532858	4.652678	-0.457414	-2.569730	-0.205672	0.132568	0.432861	-0.763916	0.917908	-0.070164	-0.162578	-0.355092
35475		14.278469	-6.342873	16.999790	-0.594918	-1.999785	-0.300482	0.100098	0.449463	-0.759521	0.911687	-0.085264	-0.183021	-0.357855
35476		8.645527	0.835890	10.150936	0.090525	-0.069182	0.056509	0.097168	0.443359	-0.760498	0.911901	-0.084722	-0.184099	-0.356885
35477		2.183430	-0.343351	9.317969	-0.108871	-0.166407	-0.043032	0.088867	0.451172	-0.753418	0.911232	-0.086659	-0.185506	-0.357399
35478		4.479324	-2.771635	8.442647	0.251979	-0.244407	-0.124722	0.083984	0.443115	-0.759033	0.910395	-0.084643	-0.189498	-0.357920
35479		4.325648	1.509246	8.832404	0.090248	0.013143	-0.041614	0.079834	0.444824	-0.767334	0.910361	-0.083515	-0.189746	-0.358140
35480		4.535619	1.066065	9.012861	-0.112088	0.152101	0.052380	0.093262	0.452393	-0.766846	0.910862	-0.084288	-0.187408	-0.357917
35481		3.997257	-0.715076	9.024207	-0.083193	0.149792	0.014332	0.094971	0.451172	-0.755615	0.911211	-0.084651	-0.185266	-0.358057
35482		4.004282	-0.065274	9.021129	-0.022658	0.096878	-0.019779	0.092285	0.450439	-0.764404	0.911347	-0.084483	-0.184032	-0.358387
35483		3.872021	-0.293969	8.876954	-0.037412	0.112795	-0.019922	0.098877	0.450928	-0.754150	0.911501	-0.084411	-0.182552	-0.358770
35484		3.821677	-0.392582	8.947576	0.005699	0.107965	-0.023629	0.089355	0.453125	-0.761230	0.911671	-0.083860	-0.181323	-0.359090
35485		3.799897	-0.458348	9.024904	0.013551	0.098553	0.009293	0.103760	0.450684	-0.761963	0.911974	-0.083338	-0.180201	-0.359006
35486		3.650426	-0.386337	9.091975	0.059582	0.051619	0.012614	0.103760	0.438721	-0.763672	0.912234	-0.082509	-0.179818	-0.358731
35487		3.698340	-0.272055	9.108439	0.096715	-0.022629	0.004285	0.099365	0.449707	-0.763184	0.912326	-0.081570	-0.180456	-0.358390
35488		3.774740	-0.077693	9.043345	0.101315	-0.061698	-0.006855	0.109375	0.449707	-0.759277	0.912283	-0.080729	-0.181571	-0.358126
35489		3.803783	-0.168312	8.982404	0.090855	-0.066514	-0.017238	0.099121	0.447021	-0.766846	0.912171	-0.080005	-0.182704	-0.357999
35490		3.838222	-0.413730	8.863080	0.116582	-0.060879	-0.028197	0.100586	0.439941	-0.765381	0.912046	-0.078937	-0.183899	-0.357942
35491		3.731180	-0.302159	8.835994	0.165360	-0.054581	-0.043263	0.108398	0.440674	-0.770020	0.911913	-0.077250	-0.185254	-0.357950
35492		3.758155	-0.142082	8.850294	0.197970	-0.068281	-0.046587	0.096191	0.436279	-0.767578	0.911760	-0.075244	-0.186914	-0.357904
35493		3.805941	0.126303	8.910921	0.192807	-0.060444	-0.035902	0.097412	0.429199	-0.770996	0.911662	-0.073287	-0.188450	-0.357754
35494		3.824887	0.262177	8.894642	0.151322	-0.054846	-0.008432	0.094482	0.431885	-0.772705	0.911658	-0.071842	-0.189710	-0.357392
35495		3.762004	0.242136	8.950772	0.118906	-0.066678	0.007400	0.096191	0.428711	-0.777588	0.911664	-0.070856	-0.190945	-0.356916
35496		3.768090	0.010984	8.893010	0.125034	-0.105121	0.009060	0.095703	0.426025	-0.772217	0.911587	-0.069974	-0.192643	-0.356371
35497		3.720332	-0.032638	8.881245	0.166968	-0.153614	-0.008608	0.087402	0.422119	-0.777100	0.911347	-0.068788	-0.195095	-0.355883
35498		3.716920	0.164638	8.905051	0.187226	-0.228694	-0.010255	0.078857	0.419189	-0.786865	0.910924	-0.067701	-0.198491	-0.355295
35499		3.750924	0.250197	8.921224	0.210534	-0.313682	-0.016437	0.083008	0.415283	-0.779297	0.910267	-0.066708	-0.202960	-0.354643
35500		3.964023	0.365917	8.853845	0.221769	-0.396503	-0.023506	0.066895	0.406494	-0.779053	0.909353	-0.065935	-0.208421	-0.353964
35501		3.998762	0.519017	8.829537	0.211540	-0.464015	-0.027177	0.053711	0.407227	-0.790527	0.908205	-0.065564	-0.214600	-0.353287
35502		4.017088	0.514487	8.843966	0.217175	-0.558739	-0.035966	0.057129	0.398682	-0.783691	0.906726	-0.065520	-0.221875	-0.352600
35503		4.011090	0.303802	8.926117	0.294564	-0.714905	-0.053336	0.036133	0.395020	-0.792236	0.904733	-0.065234	-0.231259	-0.351743
35504		3.918002	0.495476	9.104510	0.309814	-0.991848	-0.047596	0.009766	0.386963	-0.790283	0.901858	-0.066001	-0.243806	-0.350505
35505		4.054787	0.325272	9.251985	0.306160	-1.389556	-0.032165	-0.020508	0.383057	-0.784180	0.897619	-0.068582	-0.260747	-0.348695
35506		4.256344	0.134916	9.204561	0.428216	-1.863230	-0.041284	-0.055420	0.374756	-0.777100	0.891504	-0.071797	-0.283424	-0.346030
35507		4.235777	-0.376828	9.315155	0.649365	-2.437505	-0.206358	-0.112061	0.357666	-0.784668	0.882142	-0.074390	-0.313379	-0.343636
35508		4.117707	-0.219613	9.332804	0.797990	-3.206620	-0.420125	-0.171143	0.341553	-0.765869	0.867787	-0.077710	-0.352216	-0.341835
35509		4.390951	0.824289	9.176041	0.802165	-4.188752	-0.449093	-0.239258	0.329346	-0.746338	0.847000	-0.084872	-0.400927	-0.338593
35510		5.537069	1.529069	9.418775	0.907928	-5.269394	-0.373018	-0.343750	0.315186	-0.693848	0.818130	-0.095554	-0.459946	-0.331634
35511		10.497782	2.460688	11.385052	1.510692	-6.300300	-0.149899	-0.453125	0.291992	-0.612793	0.780483	-0.105099	-0.529165	-0.315887
35512		12.504722	3.439344	13.005660	2.275772	-6.563276	0.509265	-0.534180	0.273682	-0.509277	0.739203	-0.111842	-0.599347	-0.286100
35513		12.638422	0.782767	12.784282	3.336742	-5.996107	1.037313	-0.602295	0.260986	-0.406494	0.699968	-0.109882	-0.662821	-0.242154
35514		9.990204	-0.786243	8.822481	5.835568	-4.512199	0.975436	-0.634521	0.218506	-0.322510	0.670620	-0.080213	-0.715603	-0.178177
35515		16.545928	9.841298	21.709476	5.336894	-0.739726	2.346236	-0.654541	0.237305	-0.306152	0.672832	-0.057998	-0.729318	-0.109679
35516		3.240266	7.220971	13.927737	1.055815	2.944522	3.091390	-0.650635	0.288574	-0.343506	0.703722	-0.073256	-0.702573	-0.076158
35517		-2.353677	-0.774675	7.439929	0.694314	3.426206	2.875924	-0.617432	0.343750	-0.394775	0.736126	-0.089101	-0.669240	-0.047942
35518		-2.310358	0.735469	6.781303	1.852815	3.285661	1.913045	-0.592529	0.368408	-0.464355	0.765867	-0.086037	-0.636946	-0.018592
35519		-0.096616	3.390657	8.895213	1.786634	3.427386	0.450552	-0.572998	0.382568	-0.541260	0.794352	-0.071692	-0.603200	-0.003872
35520		3.125064	1.475651	10.978276	1.209844	4.200706	-1.000829	-0.549072	0.386475	-0.642578	0.825882	-0.051883	-0.561385	-0.008605
35521		4.940302	-1.804161	11.493753	0.911240	5.073453	-1.620716	-0.492188	0.376221	-0.782227	0.860072	-0.030498	-0.508770	-0.022367
35522		7.416143	-3.035706	12.590648	0.861653	5.900706	-1.489933	-0.343994	0.346191	-0.913330	0.895009	-0.010071	-0.444541	-0.035231
35523		7.009124	-4.020720	11.329955	0.787719	6.385859	-1.024748	-0.149658	0.291016	-0.977783	0.927198	0.007241	-0.372009	-0.043133
35524		8.903796	-3.624030	13.110748	1.530870	5.727129	-0.814530	0.018555	0.240723	-0.982666	0.950687	0.031802	-0.305229	-0.044928
35525		14.713314	2.627615	18.572096	1.485350	5.290192	-0.935595	0.147461	0.195312	-0.966797	0.967474	0.055884	-0.241958	-0.048255
35526		22.545891	8.121382	17.760153	0.451638	5.707153	-1.591333	0.289307	0.163574	-0.933350	0.980803	0.069430	-0.171321	-0.062082
35527		19.184159	1.260628	7.560154	0.239777	5.342980	-2.505690	0.391357	0.151611	-0.871582	0.987421	0.081692	-0.103260	-0.087539
35528		21.853533	-1.413252	2.497066	0.479675	3.953582	-2.509965	0.454834	0.144775	-0.828857	0.987577	0.095042	-0.052130	-0.113757
35529		23.084986	-2.579391	-6.149894	-0.000884	2.518917	-2.037981	0.472900	0.153809	-0.796143	0.985509	0.099865	-0.018458	-0.135858
35530		19.520963	-6.582790	-8.096006	0.999154	0.258674	-0.862928	0.474609	0.137207	-0.808350	0.982718	0.112790	-0.015797	-0.145925
35531		16.213296	5.921224	-0.753747	0.422784	-1.510560	0.293036	0.438477	0.135986	-0.826416	0.982171	0.115120	-0.035464	-0.144322
35532		5.197064	1.732807	10.512742	-2.899827	-2.915987	0.805658	0.382324	0.197754	-0.849365	0.985164	0.073737	-0.067081	-0.139698
35533		-0.019539	-4.925695	9.040052	-2.022967	-2.792556	-0.217005	0.315430	0.262451	-0.876465	0.983398	0.044040	-0.097620	-0.146487
35534		9.689730	-6.511331	11.218176	-0.318158	-3.560333	-0.109066	0.231689	0.272949	-0.903564	0.978062	0.033656	-0.140582	-0.149994
35535		9.670588	3.170002	12.562508	-0.071989	-2.825301	-0.149099	0.172852	0.297607	-0.911133	0.972256	0.027655	-0.174792	-0.152977
35536		10.756451	-0.970552	13.477183	-0.703714	-1.561595	0.126200	0.128174	0.314209	-0.922607	0.969121	0.015769	-0.192395	-0.153427
35537		6.405458	1.938635	10.559620	-0.944673	-0.655677	0.226873	0.116455	0.345459	-0.919922	0.968078	0.002447	-0.198526	-0.152994
35538		5.343901	1.066057	9.759246	-1.159552	-0.032429	0.398107	0.115234	0.365967	-0.911621	0.968694	-0.012707	-0.196668	-0.150970
35539		3.917167	-1.290564	9.447926	-0.766912	0.098647	0.296120	0.124268	0.393311	-0.908936	0.969334	-0.022606	-0.193947	-0.149212
35540		3.862441	-0.970525	9.355243	-0.428207	0.019255	0.258297	0.122559	0.407715	-0.905273	0.969735	-0.028459	-0.192818	-0.147053
35541		3.624016	-0.335847	9.080606	-0.189528	-0.008277	0.168423	0.126709	0.396973	-0.907471	0.969965	-0.031254	-0.192488	-0.145392
35542		3.717270	0.220518	8.941471	-0.085635	-0.029402	0.081707	0.125732	0.409180	-0.899170	0.970021	-0.032619	-0.192636	-0.144523
35543		3.645485	-0.241900	9.018241	-0.081363	-0.061436	0.055386	0.133301	0.409912	-0.907715	0.969951	-0.033926	-0.193190	-0.143951
35544		3.702123	-0.565341	9.025407	0.060307	-0.125011	0.009900	0.119141	0.405273	-0.910400	0.969703	-0.033521	-0.194789	-0.143560
35545		3.765753	-0.419857	8.927102	0.182599	-0.173149	-0.039171	0.120117	0.400146	-0.911865	0.969295	-0.031600	-0.197210	-0.143444
35546		3.778688	0.240312	8.864650	0.223019	-0.185111	-0.064198	0.109863	0.396240	-0.912354	0.968818	-0.029149	-0.199856	-0.143525
35547		3.955549	0.155345	8.836093	0.173267	-0.156287	-0.048716	0.112549	0.400879	-0.911621	0.968412	-0.027286	-0.202056	-0.143552
35548		4.007891	0.198283	8.798647	0.127971	-0.119309	-0.045386	0.112061	0.396729	-0.908203	0.968083	-0.025913	-0.203724	-0.143666
35549		3.977835	0.079719	8.835885	0.091140	-0.099184	-0.041540	0.114746	0.391602	-0.902344	0.967797	-0.024959	-0.205081	-0.143833
35550		3.923807	-0.040382	8.875725	0.097627	-0.094299	-0.034529	0.111328	0.392822	-0.906494	0.967535	-0.023935	-0.206388	-0.143900
35551		3.842748	0.022869	8.886506	0.136858	-0.130059	-0.055266	0.105957	0.395752	-0.912109	0.967151	-0.022447	-0.208203	-0.144104
35552		3.797985	-0.092611	9.037962	0.191475	-0.203649	-0.090627	0.098145	0.385986	-0.904541	0.966519	-0.020340	-0.211014	-0.144572
35553		3.712555	0.288848	9.034624	0.239167	-0.348271	-0.108440	0.085938	0.381348	-0.914551	0.965464	-0.017870	-0.215657	-0.145090
35554		3.743627	0.334283	9.019998	0.249696	-0.525653	-0.108731	0.072510	0.380615	-0.920410	0.963894	-0.015592	-0.222451	-0.145537
35555		3.635998	0.536526	9.206205	0.239457	-0.784292	-0.102951	0.062256	0.371826	-0.921875	0.961536	-0.013923	-0.232323	-0.145881
35556		3.414819	0.452062	9.534069	0.313065	-1.223230	-0.088189	0.031250	0.365234	-0.920166	0.957772	-0.012208	-0.247559	-0.145733
35557		3.692197	0.282496	9.466953	0.320533	-1.803337	-0.040266	-0.011963	0.365967	-0.914307	0.951933	-0.011602	-0.269647	-0.144845
35558		3.671589	0.209129	9.637289	0.429487	-2.487667	-0.109880	-0.059326	0.360596	-0.915039	0.942955	-0.010695	-0.299875	-0.144208
35559		3.892621	0.267461	9.584981	0.455475	-3.336283	-0.210773	-0.140381	0.342773	-0.894043	0.929315	-0.010615	-0.339740	-0.144351
35560		4.322107	1.388257	9.300527	0.296949	-4.238100	-0.166656	-0.233398	0.338623	-0.866211	0.909774	-0.014164	-0.388993	-0.144203
35561		4.929445	1.547946	9.001423	0.053337	-5.344804	0.108363	-0.338379	0.340088	-0.818359	0.882004	-0.023754	-0.448900	-0.141396
35562		8.422559	3.225989	11.368179	-0.233438	-6.631201	0.569335	-0.456055	0.350830	-0.725098	0.842748	-0.041215	-0.519747	-0.133941
35563		14.275061	3.870877	13.521859	-0.249787	-7.125899	1.180457	-0.567627	0.370850	-0.601562	0.794958	-0.063322	-0.591517	-0.118912
35564		13.277314	2.032541	14.024566	0.199500	-6.695592	1.547567	-0.637695	0.380371	-0.468262	0.745076	-0.082554	-0.654800	-0.096352
35565		11.267241	1.842915	11.497480	1.581762	-5.794417	1.681326	-0.697266	0.371582	-0.330811	0.699144	-0.088385	-0.706823	-0.061535
35566		17.698165	3.971215	24.108117	2.440916	-1.743956	1.667445	-0.715088	0.377197	-0.281250	0.687147	-0.083128	-0.721366	-0.023472
35567		1.602848	8.096174	13.333682	0.840769	1.815118	1.639209	-0.752441	0.380615	-0.281250	0.704606	-0.090190	-0.703834	-0.003768
35568		-1.297617	1.757639	7.330922	0.510697	2.027133	1.271061	-0.800781	0.379150	-0.312988	0.722860	-0.096811	-0.684113	0.009524
35569		0.530204	2.298306	7.875095	1.613298	2.405741	0.486892	-0.844727	0.366211	-0.415771	0.744956	-0.086690	-0.660997	0.024680
35570		1.719984	4.713843	8.937876	1.476897	3.357826	-0.171873	-0.827148	0.330566	-0.583008	0.773683	-0.072528	-0.628620	0.031488
35571		3.050263	2.512337	9.323474	0.856125	4.428278	-0.802973	-0.718750	0.268555	-0.727539	0.808409	-0.059621	-0.585005	0.026243
35572		3.790731	-0.345916	9.160613	0.940556	5.306382	-1.078416	-0.567139	0.247803	-0.815674	0.846450	-0.043880	-0.530349	0.018063
35573		4.811715	-1.470462	8.980414	1.460377	5.953157	-1.047478	-0.451172	0.223633	-0.876709	0.884469	-0.022742	-0.465858	0.013199
35574		4.586630	-1.755480	7.849055	2.023390	5.780042	-1.115391	-0.326904	0.210205	-1.002686	0.916274	0.005198	-0.400372	0.010830
35575		9.340800	-0.578942	12.837568	2.223963	5.295249	-1.336208	-0.120850	0.209961	-1.094727	0.940382	0.036592	-0.338076	0.006846
35576		13.286687	0.660142	17.228286	1.731378	5.251864	-1.255461	0.089355	0.176758	-1.118164	0.959579	0.061690	-0.274591	0.001675
35577		20.556727	3.554588	19.572112	1.748108	5.640581	-1.366525	0.316650	0.077148	-1.074707	0.974897	0.087039	-0.204890	-0.004473
35578		19.226124	3.726498	13.022478	0.927759	6.087405	-2.184355	0.504883	0.051025	-0.922607	0.986115	0.103988	-0.127567	-0.022153
35579		18.337647	-1.959715	8.505112	0.865410	4.718920	-2.492742	0.576904	0.054932	-0.791748	0.989575	0.119713	-0.065959	-0.045377
35580		20.936977	-0.500418	3.448853	1.707765	3.901671	-2.642358	0.579834	0.045654	-0.723877	0.986793	0.144994	-0.014451	-0.070764
35581		21.996126	-9.126750	-7.506185	0.611583	1.662237	-1.581546	0.568848	0.044922	-0.712891	0.984146	0.154240	0.008509	-0.087146
35582		20.858661	-5.072971	-6.492490	1.835434	-0.579209	-0.373493	0.538818	0.007568	-0.716309	0.979969	0.176088	0.000190	-0.093024
35583		14.891261	4.301769	-0.905232	-3.430454	-2.677192	0.759828	0.473877	0.052246	-0.732666	0.986920	0.130684	-0.030222	-0.089433
35584		-0.972564	0.521192	17.382886	-3.740551	-3.072663	0.465432	0.410156	0.124023	-0.750488	0.990569	0.080694	-0.064603	-0.089932
35585		8.603291	-12.654285	8.017431	-1.994816	-3.701665	-0.210979	0.317871	0.157471	-0.772705	0.987992	0.051870	-0.107839	-0.097733
35586		9.809278	-7.417938	14.905755	0.329310	-3.187694	-0.089971	0.242920	0.144531	-0.802246	0.982593	0.052052	-0.147433	-0.100323
35587		10.500118	5.126226	12.845514	0.513986	-2.508153	-0.422779	0.189697	0.132080	-0.801025	0.976607	0.055878	-0.178519	-0.106054
35588		7.589886	2.829980	10.735208	-0.235731	-1.292219	-0.140879	0.150879	0.144775	-0.797119	0.973582	0.051506	-0.193863	-0.109100
35589		5.678738	1.240664	10.003777	-0.663607	-0.619618	-0.024239	0.141846	0.150635	-0.797852	0.972423	0.042553	-0.200481	-0.111309
35590		4.817942	-0.266324	9.851886	-0.377334	-0.244293	0.045672	0.137939	0.165527	-0.797119	0.972070	0.037424	-0.202961	-0.111741
35591		3.951800	-0.237417	9.539974	0.038267	-0.211260	-0.068945	0.131348	0.161865	-0.797607	0.971427	0.037678	-0.205563	-0.112489
35592		4.063721	0.948268	8.990159	0.208016	-0.288763	-0.091009	0.121826	0.158936	-0.810303	0.970461	0.039938	-0.209332	-0.113100
35593		3.891715	2.680319	8.659065	0.004850	-0.283731	0.062401	0.111084	0.156006	-0.796631	0.969809	0.039338	-0.212825	-0.112376
35594		4.224835	1.777288	8.710137	-0.316034	-0.204844	0.196821	0.112061	0.160889	-0.799072	0.969692	0.034605	-0.214974	-0.110840
35595		4.080928	0.574215	8.886012	-0.231187	-0.177855	0.125594	0.106934	0.168945	-0.801025	0.969490	0.031129	-0.216877	-0.109928
35596		4.037891	0.630798	8.844215	-0.074523	-0.214266	0.020362	0.104980	0.163086	-0.804688	0.968972	0.029786	-0.219394	-0.109878
35597		4.115756	1.079461	8.657805	-0.035559	-0.226193	0.012939	0.093262	0.167480	-0.804932	0.968387	0.028919	-0.222105	-0.109814
35598		4.321587	1.360457	8.710896	-0.120118	-0.211254	0.056393	0.091309	0.166504	-0.798828	0.967926	0.026928	-0.224532	-0.109452
35599		4.543464	0.855315	8.724593	-0.092524	-0.142260	0.061685	0.087891	0.174805	-0.805664	0.967648	0.025351	-0.226162	-0.108927
35600		4.440576	0.974371	8.617100	-0.079037	-0.068205	0.088696	0.088379	0.169678	-0.802002	0.967608	0.023962	-0.226924	-0.108013
35601		4.376423	1.507151	8.569387	-0.197269	0.030015	0.176545	0.095703	0.185791	-0.795410	0.967992	0.021026	-0.226362	-0.106341
35602		4.190018	1.016424	8.755184	-0.288725	0.056467	0.195895	0.093994	0.184814	-0.791748	0.968486	0.016966	-0.225362	-0.104689
35603		4.186799	0.350400	8.767778	-0.268400	-0.016917	0.154896	0.094727	0.184326	-0.793701	0.968697	0.013170	-0.225263	-0.103490
35604		4.119403	0.394812	8.809585	-0.165089	-0.111513	0.087556	0.092285	0.187500	-0.796631	0.968525	0.010693	-0.226429	-0.102830
35605		4.221296	0.543984	8.719059	-0.099631	-0.195501	0.041780	0.083740	0.198486	-0.788330	0.968041	0.009029	-0.228689	-0.102549
35606		4.144843	0.609803	8.773702	-0.079307	-0.268449	0.008951	0.077393	0.193604	-0.790039	0.967294	0.007611	-0.231851	-0.102615
35607		4.123985	0.467355	8.860749	-0.035781	-0.403792	-0.019765	0.073486	0.195068	-0.789062	0.966095	0.006630	-0.236697	-0.102913
35608		4.093252	0.485132	8.873709	0.011245	-0.619343	-0.060993	0.057617	0.196777	-0.791260	0.964160	0.006062	-0.244193	-0.103583
35609		4.042227	0.949263	9.069316	0.008138	-0.892454	-0.012484	0.040283	0.195312	-0.797607	0.961364	0.004955	-0.254956	-0.103690
35610		3.953511	0.955402	9.286969	-0.019699	-1.264055	0.091726	0.010986	0.205811	-0.794678	0.957341	0.002700	-0.270104	-0.102637
35611		3.772276	1.018909	9.693649	-0.073114	-1.868177	0.116900	-0.034424	0.194092	-0.794189	0.950930	-0.001051	-0.292301	-0.101446
35612		3.700295	1.186396	10.042910	-0.191135	-2.733319	0.228779	-0.088623	0.206299	-0.784668	0.940677	-0.007706	-0.324369	-0.099259
35613		4.072222	1.276280	10.276755	-0.313739	-3.860673	0.470399	-0.163574	0.201416	-0.775146	0.924471	-0.018161	-0.368922	-0.094448
35614		5.429305	1.299798	11.132975	-0.438813	-5.111889	0.951030	-0.274414	0.220947	-0.740723	0.899979	-0.033683	-0.426421	-0.084072
35615		10.597844	2.460496	14.177335	-0.439059	-5.979336	1.560331	-0.373779	0.236328	-0.686279	0.866908	-0.053182	-0.491201	-0.066063
35616		12.455100	0.528552	13.502588	0.693129	-5.651787	2.037444	-0.471680	0.244629	-0.631836	0.831922	-0.062764	-0.550169	-0.035786
35617		10.500480	-4.435631	15.231217	2.644706	-4.339056	2.551111	-0.535400	0.239502	-0.596436	0.803248	-0.054673	-0.593001	0.012398
35618		6.758740	10.093552	16.004724	3.022283	-0.907362	3.250579	-0.541260	0.239014	-0.606934	0.796839	-0.048278	-0.598406	0.068024
35619		0.799150	9.695160	8.441290	1.564046	0.368615	1.390168	-0.540771	0.230469	-0.635986	0.799139	-0.043463	-0.592270	0.093295
35620		0.181057	6.918208	6.954004	2.599831	0.911867	-1.423439	-0.533447	0.165771	-0.660400	0.808438	-0.008050	-0.580361	0.097696
35621		0.459984	3.766900	7.430093	3.105882	1.390783	-3.278044	-0.522217	0.065674	-0.697021	0.821511	0.045355	-0.561733	0.086712
35622		2.412538	-1.835354	9.428537	3.461143	2.053278	-4.144400	-0.484619	-0.055664	-0.739746	0.836393	0.107558	-0.532986	0.069310
35623		4.139663	-4.156664	10.469705	3.462872	2.961648	-3.719991	-0.410156	-0.173828	-0.760986	0.852507	0.165593	-0.492483	0.057200
35624		5.193395	-5.940162	9.902203	2.641511	3.498602	-2.685154	-0.322754	-0.262207	-0.785400	0.868816	0.207349	-0.446622	0.051901
35625		6.981928	-8.292595	10.956887	2.058322	3.972554	-1.320683	-0.239502	-0.320557	-0.797852	0.885118	0.234070	-0.397833	0.059208
35626		8.279113	-8.486012	11.792161	1.661409	4.595425	0.530304	-0.147949	-0.359863	-0.813965	0.901121	0.245885	-0.346429	0.086649
35627		10.151794	-5.469150	11.961393	1.634213	5.167583	1.954653	-0.052734	-0.385254	-0.820312	0.914086	0.249490	-0.291438	0.131397
35628		9.440099	-4.044034	11.420160	1.164182	5.371348	2.377611	0.026367	-0.407227	-0.821777	0.923609	0.244495	-0.234633	0.179209
35629		9.532596	-5.057164	11.179376	1.348231	4.799542	2.384703	0.104492	-0.447021	-0.815186	0.926064	0.241599	-0.182804	0.224987
35630		11.378174	-4.316496	12.099226	1.068793	4.266751	2.709824	0.155762	-0.464355	-0.802734	0.923066	0.235127	-0.138082	0.271291
35631		12.111698	-6.799861	12.293839	0.442497	3.748593	3.703617	0.202148	-0.483398	-0.789795	0.913677	0.220458	-0.103793	0.325298
35632		13.331583	-5.997290	12.244160	0.559978	3.674187	4.228060	0.223633	-0.511719	-0.778076	0.897452	0.205707	-0.070850	0.383724
35633		10.966132	-1.530226	6.571013	-0.605177	3.202629	4.339847	0.237305	-0.528809	-0.772217	0.878949	0.179060	-0.048741	0.439329
35634		11.342203	-7.404214	2.074883	0.471032	1.871227	3.965463	0.226318	-0.550293	-0.762695	0.855897	0.171081	-0.034329	0.486819
35635		12.526312	-0.465560	1.604990	0.728265	0.597445	3.031008	0.207031	-0.577393	-0.745850	0.835441	0.173606	-0.029917	0.520581
35636		13.532700	-1.963566	1.642278	-0.301432	-0.218900	1.847221	0.171875	-0.568604	-0.745117	0.823720	0.170968	-0.038150	0.539259
35637		12.901190	1.278003	4.780533	-0.935537	-1.176401	2.138103	0.125244	-0.558838	-0.772949	0.810266	0.167995	-0.061133	0.558131
35638		1.519022	17.165830	11.693052	-1.797726	-0.919554	1.034789	0.091797	-0.522217	-0.797363	0.805753	0.155205	-0.085180	0.565171
35639		4.967397	-5.028132	9.498462	-1.951617	-1.573779	-0.499923	0.063965	-0.475586	-0.823975	0.810949	0.147008	-0.113822	0.554792
35640		5.481444	-3.870742	10.721176	-0.917642	-1.264833	0.150006	0.036865	-0.455566	-0.836914	0.809603	0.146112	-0.133292	0.552655
35641		8.649821	0.702060	11.302443	-0.921935	-0.665951	-0.155382	0.035400	-0.444580	-0.848877	0.811127	0.141495	-0.146146	0.548355
35642		4.919345	0.157098	9.620114	-0.805827	-0.235467	-0.049943	0.021973	-0.422607	-0.853027	0.812381	0.134894	-0.154011	0.546005
35643		4.941785	-0.529450	9.063395	-0.680467	0.023004	-0.067238	0.029297	-0.415527	-0.856201	0.813963	0.127825	-0.158355	0.544104
35644		3.744000	-1.573530	9.011300	-0.402804	0.117259	-0.050539	0.029785	-0.404785	-0.868164	0.815131	0.122900	-0.159875	0.543044
35645		3.778442	-1.381637	9.151534	0.017513	0.039933	-0.091602	0.033936	-0.408203	-0.868652	0.815764	0.122859	-0.159266	0.542281
35646		4.080472	0.355382	9.096417	0.171961	0.011233	-0.092867	0.029541	-0.410889	-0.867188	0.816107	0.124587	-0.157903	0.541769
35647		4.108442	0.772827	9.042645	0.094346	0.021805	-0.032667	0.036133	-0.412842	-0.868164	0.816182	0.125332	-0.157050	0.541732
35648		3.608391	0.222583	8.953481	0.058736	-0.007104	-0.004348	0.033936	-0.414062	-0.868652	0.816065	0.125856	-0.156778	0.541867
35649		3.672677	-0.148770	8.916183	0.128852	-0.086300	-0.020688	0.029053	-0.420654	-0.863281	0.815791	0.127664	-0.156812	0.541847
35650		3.804611	0.148297	8.838564	0.189382	-0.124160	-0.031109	0.028564	-0.416992	-0.868896	0.815411	0.130364	-0.156804	0.541777
35651		3.797598	0.419815	8.674741	0.185020	-0.128701	-0.026649	0.022461	-0.425293	-0.855957	0.814994	0.133040	-0.156879	0.541732
35652		3.936329	0.675230	8.751722	0.131980	-0.109854	-0.012778	0.017334	-0.428711	-0.867920	0.814603	0.135022	-0.157142	0.541753
35653		3.797227	0.843157	8.883395	0.071282	-0.086253	-0.001627	0.014893	-0.430664	-0.860352	0.814284	0.136204	-0.157594	0.541806
35654		3.882631	0.375819	8.872186	0.064247	-0.109280	0.004609	0.018066	-0.429443	-0.850342	0.813888	0.137459	-0.158337	0.541868
35655		3.908793	0.250671	8.846000	0.126417	-0.155807	-0.010803	0.022461	-0.434814	-0.856201	0.813393	0.139692	-0.159105	0.541815
35656		3.907445	0.289037	8.871747	0.183346	-0.215284	-0.022681	0.008789	-0.431396	-0.856934	0.812754	0.142928	-0.160070	0.541645
35657		4.006071	0.523961	8.868013	0.241379	-0.274586	-0.056502	0.003174	-0.442139	-0.852539	0.812109	0.147221	-0.161181	0.541134
35658		3.998098	0.496968	8.908404	0.289923	-0.343345	-0.079249	-0.006104	-0.452148	-0.843506	0.811368	0.152514	-0.162615	0.540350
35659		4.265663	0.866863	8.848979	0.315444	-0.387640	-0.083178	0.002441	-0.451660	-0.843506	0.810486	0.158368	-0.164312	0.539475
35660		4.456235	0.976875	8.714531	0.309791	-0.363025	-0.098484	-0.013184	-0.460205	-0.839600	0.809739	0.164025	-0.165760	0.538462
35661		4.416873	0.815684	8.785531	0.342391	-0.363270	-0.120272	-0.016846	-0.475830	-0.841064	0.809041	0.170054	-0.166940	0.537275
35662		4.347406	1.290922	8.734995	0.276337	-0.438974	-0.068997	-0.030029	-0.472168	-0.835205	0.807948	0.175810	-0.169431	0.536287
35663		4.266377	1.398041	8.776104	0.190887	-0.538411	-0.015060	-0.038330	-0.480225	-0.828857	0.806433	0.181249	-0.173608	0.535420
35664		4.380391	0.976640	8.783476	0.199951	-0.674189	0.015306	-0.055420	-0.477783	-0.827148	0.804349	0.187611	-0.179149	0.534537
35665		4.531643	0.177794	8.842430	0.363851	-0.852685	-0.011176	-0.065430	-0.488281	-0.809082	0.801573	0.196854	-0.185307	0.533282
35666		4.387733	0.343896	9.097088	0.629538	-1.092896	-0.068474	-0.094727	-0.498779	-0.811768	0.797816	0.210453	-0.191923	0.531380
35667		3.403621	1.258506	9.519864	0.855523	-1.597224	-0.033604	-0.128906	-0.513184	-0.789307	0.791720	0.229489	-0.202083	0.528845
35668		3.268381	-0.241431	10.007379	1.399018	-2.453401	0.035305	-0.171875	-0.545166	-0.754639	0.780754	0.259182	-0.217134	0.525452
35669		4.501274	-3.241084	10.709016	3.067559	-3.560460	0.093106	-0.231934	-0.600586	-0.677734	0.759179	0.311637	-0.231693	0.522348
35670		7.065768	1.665090	12.449582	5.623433	-4.247257	0.607329	-0.309326	-0.689453	-0.552979	0.718072	0.389504	-0.236770	0.525928
35671		10.479174	2.803608	13.567039	7.628730	-3.658403	1.662455	-0.382568	-0.755371	-0.369629	0.655111	0.474524	-0.226218	0.542662
35672		11.001809	5.599231	9.332797	8.985462	-1.834519	2.417609	-0.438721	-0.787109	-0.164062	0.575805	0.550036	-0.193126	0.573246
35673		5.266569	13.169344	13.591318	5.730443	0.773899	3.037887	-0.498535	-0.770020	-0.059814	0.514661	0.576373	-0.166765	0.612460
35674		0.331919	1.713527	9.571172	3.842107	2.006452	2.973402	-0.539307	-0.736572	-0.022949	0.467339	0.578112	-0.145476	0.652853
35675		-0.770265	3.561350	9.795631	3.791208	2.438192	1.966408	-0.574707	-0.702148	0.015381	0.427488	0.575507	-0.114184	0.687755
35676		-0.503729	0.028431	10.535944	2.577995	2.719518	0.746712	-0.575684	-0.692383	0.017578	0.405943	0.563980	-0.082654	0.714356
35677		1.302613	-3.795141	11.814756	1.946405	3.021729	0.130183	-0.584717	-0.690186	0.002930	0.393787	0.545945	-0.050685	0.737771
35678		3.960937	-6.259983	13.154596	1.348800	3.802367	0.500085	-0.581299	-0.684570	-0.034912	0.381878	0.516248	-0.022788	0.766250
35679		5.008765	-7.004775	12.369223	1.042640	4.612606	1.255241	-0.591797	-0.667969	-0.091064	0.363721	0.475451	0.001235	0.801032
35680		5.608695	-5.956054	11.603657	0.739745	5.009841	1.903231	-0.599609	-0.650635	-0.161621	0.339342	0.427304	0.020167	0.837766
35681		6.285158	-5.335121	11.728946	0.521610	5.058088	2.265351	-0.611328	-0.611084	-0.241943	0.310706	0.375778	0.034983	0.872370
35682		6.939324	-4.058575	12.088881	0.518513	4.938437	2.440272	-0.607910	-0.583008	-0.314941	0.278715	0.323785	0.048305	0.902856
35683		8.212521	-2.129900	12.645120	0.514844	4.582178	2.467581	-0.601074	-0.544922	-0.369873	0.245366	0.274324	0.060011	0.927869
35684		11.007573	0.526849	13.568614	0.230388	4.297432	2.208262	-0.573730	-0.512451	-0.438721	0.215224	0.225998	0.068195	0.947604
35685		12.943360	1.640152	11.100637	-0.380535	4.013067	1.682337	-0.556396	-0.477295	-0.502197	0.192549	0.178198	0.069638	0.962456
35686		14.638069	1.683673	6.804090	-0.502281	3.322706	0.856596	-0.508789	-0.458252	-0.550049	0.180198	0.137270	0.069620	0.971514
35687		16.983718	1.502088	2.308377	-0.575660	2.314699	0.340151	-0.479736	-0.430420	-0.591309	0.174865	0.107806	0.067221	0.976361
35688		18.597969	-1.046909	-1.119635	-0.059682	1.270245	0.367456	-0.477051	-0.434082	-0.595459	0.169282	0.092225	0.068752	0.978832
35689		17.291940	4.248896	-4.242442	-0.280531	-0.076125	0.659391	-0.482666	-0.424316	-0.609863	0.161517	0.092943	0.064369	0.980373
35690		11.377266	-1.192277	1.106427	-1.917368	-1.985842	0.142967	-0.512451	-0.385742	-0.589355	0.163418	0.113340	0.036642	0.979340
35691		1.737426	-5.698363	15.493819	-1.463964	-1.727852	-0.063237	-0.541016	-0.362549	-0.584961	0.166925	0.131335	0.015235	0.977064
35692		5.256595	-4.143205	8.563660	-0.449131	-2.164399	0.415152	-0.565186	-0.348633	-0.548340	0.162878	0.156758	0.004491	0.974103
35693		6.723080	2.964900	10.635205	-0.224174	-1.894586	-0.055503	-0.604492	-0.352051	-0.521484	0.163998	0.179230	-0.002062	0.970040
35694		8.907630	-1.023179	12.209085	-0.628697	-1.210517	0.196758	-0.615479	-0.341309	-0.516602	0.162911	0.192505	-0.012677	0.967596
35695		5.998403	1.232229	10.137441	-0.863799	-0.403739	0.335538	-0.620850	-0.323486	-0.510498	0.160804	0.195490	-0.024831	0.967114
35696		5.229158	-0.270027	9.616358	-0.751833	0.094927	0.280633	-0.624023	-0.307617	-0.507080	0.159221	0.192670	-0.034490	0.967645
35697		3.931250	-1.525067	9.345568	-0.404451	0.075541	0.160722	-0.625977	-0.299561	-0.525879	0.158233	0.190817	-0.039696	0.967975
35698		3.801589	-1.159047	9.096770	-0.124512	0.027361	0.061224	-0.624023	-0.298340	-0.519287	0.157754	0.190146	-0.041377	0.968115
35699		3.708851	-0.413339	9.050348	0.010391	-0.026302	0.007879	-0.628662	-0.292480	-0.519775	0.157573	0.190418	-0.041408	0.968089
35700		3.972815	-0.102341	9.090012	0.002012	-0.039440	0.024996	-0.633301	-0.302002	-0.515869	0.157198	0.190823	-0.041607	0.968062
35701		3.778956	-0.006881	9.009771	0.003845	-0.052980	0.036635	-0.631348	-0.300049	-0.519043	0.156670	0.191390	-0.041837	0.968026
35702		3.735007	-0.692354	9.013899	0.073487	-0.093040	0.000348	-0.638916	-0.297852	-0.515869	0.156394	0.192598	-0.041216	0.967858
35703		3.757066	-0.515403	8.894627	0.203999	-0.132958	-0.057037	-0.637939	-0.302979	-0.510742	0.156476	0.194572	-0.038957	0.967543
35704		3.809459	0.060140	8.845683	0.236744	-0.136454	-0.070877	-0.632568	-0.311523	-0.512695	0.156642	0.196657	-0.036276	0.967199
35705		3.862258	0.115491	8.897310	0.174590	-0.122227	-0.033420	-0.638672	-0.310059	-0.510254	0.156514	0.198429	-0.034409	0.966926
35706		3.962073	0.180021	8.850424	0.110100	-0.108889	0.001365	-0.629395	-0.310303	-0.496582	0.156130	0.199899	-0.033381	0.966721
35707		3.868335	0.036616	8.881629	0.084092	-0.108463	0.019088	-0.629883	-0.308105	-0.503662	0.155596	0.201306	-0.032709	0.966538
35708		3.853326	-0.131845	8.925263	0.074452	-0.133328	0.042657	-0.645264	-0.306152	-0.492432	0.154791	0.202984	-0.032262	0.966332
35709		3.881692	-0.222560	8.895328	0.107888	-0.189405	0.039760	-0.646729	-0.315430	-0.500000	0.153913	0.205403	-0.031511	0.965985
35710		3.889756	0.026356	8.809629	0.152528	-0.253890	0.012893	-0.642578	-0.315186	-0.488281	0.153217	0.208696	-0.030277	0.965429
35711		3.781189	0.209220	8.877714	0.157364	-0.357265	-0.014033	-0.648682	-0.311279	-0.483398	0.152791	0.213252	-0.029112	0.964537
35712		3.868214	0.067100	8.976899	0.143283	-0.488824	-0.019454	-0.656982	-0.318359	-0.472656	0.152416	0.219362	-0.028351	0.963248
35713		3.861194	0.511120	9.008564	0.139433	-0.664624	-0.022019	-0.666016	-0.316162	-0.459473	0.152010	0.227568	-0.027962	0.961418
35714		3.761644	0.502915	9.156881	0.075346	-0.934283	-0.000646	-0.674072	-0.325928	-0.442871	0.151419	0.238861	-0.028913	0.958740
35715		3.682255	-0.134028	9.512152	0.122607	-1.425581	-0.019518	-0.691650	-0.322754	-0.407471	0.150700	0.256081	-0.030161	0.954360
35716		3.963285	-1.205334	9.542698	0.258267	-2.059756	-0.084994	-0.704346	-0.320312	-0.368652	0.150012	0.281014	-0.030761	0.947408
35717		3.466817	-0.057463	10.119042	0.431680	-2.919153	-0.208228	-0.734375	-0.328613	-0.307373	0.149690	0.316200	-0.030459	0.936313
35718		3.410466	0.287700	10.280348	0.460687	-4.104393	-0.158152	-0.766846	-0.333008	-0.221924	0.147912	0.364634	-0.032169	0.918765
35719		3.571337	0.070095	10.270707	0.471576	-5.601619	0.009184	-0.791748	-0.335449	-0.099609	0.142997	0.428789	-0.037156	0.891241
35720		8.323149	1.653434	12.713016	0.573810	-7.258488	0.192842	-0.790771	-0.333252	0.058350	0.133779	0.508597	-0.044693	0.849374
35721		16.054034	3.601687	15.584095	0.751251	-7.314860	0.730580	-0.784180	-0.309326	0.220459	0.116576	0.584714	-0.053470	0.801037
35722		12.420342	0.471605	14.626269	1.459438	-6.527862	1.145215	-0.742432	-0.273438	0.363525	0.089665	0.649129	-0.056608	0.753251
35723		9.858122	-1.971748	15.836438	3.064799	-4.407647	1.417101	-0.705566	-0.205322	0.484131	0.048135	0.691317	-0.044116	0.719596
35724		9.646882	6.068599	20.212773	3.244118	0.012531	2.658318	-0.715820	-0.103760	0.497070	-0.003865	0.690557	-0.037884	0.722274
35725		-1.515027	5.872082	9.872423	1.202058	1.567621	2.635784	-0.742676	-0.031006	0.464600	-0.037300	0.674286	-0.049828	0.735843
35726		-0.837238	2.266462	8.379816	1.397804	2.045066	1.411606	-0.766602	0.026855	0.431641	-0.060778	0.653263	-0.049765	0.753045
35727		-0.411214	4.033770	8.407780	1.546337	2.703835	0.091320	-0.788330	0.068359	0.378418	-0.072549	0.625807	-0.037936	0.775669
35728		1.588463	1.665564	9.646794	1.035649	3.408142	-0.960305	-0.823730	0.066650	0.309082	-0.069664	0.591309	-0.023385	0.803090
35729		3.964381	-0.780748	10.861100	0.893034	4.467009	-1.460129	-0.861328	0.050781	0.215332	-0.060203	0.544730	-0.007427	0.836415
35730		5.840063	-1.964520	11.202902	0.722618	5.472537	-1.342306	-0.876465	0.026611	0.091553	-0.050469	0.485372	0.005211	0.872834
35731		6.025679	-2.951707	10.359031	0.687791	6.176005	-1.098560	-0.899170	0.016602	-0.061279	-0.042953	0.415608	0.015501	0.908397
35732		6.017922	-4.074863	9.723755	1.193971	5.902492	-1.041405	-0.883301	0.007812	-0.211182	-0.038406	0.346133	0.031270	0.936877
35733		9.921007	-1.776567	14.919966	1.468556	5.310225	-0.913643	-0.840820	0.008301	-0.361084	-0.036100	0.281613	0.049793	0.957555
35734		15.606634	2.553490	19.221858	0.974323	5.224218	-0.856599	-0.763184	0.003174	-0.500488	-0.032509	0.217033	0.061991	0.973651
35735		21.570772	8.298682	15.996036	0.141435	5.751021	-1.297428	-0.660645	-0.028809	-0.633789	-0.021546	0.144979	0.064720	0.987081
35736		16.956560	0.555998	7.006715	0.124032	5.129341	-2.697144	-0.538330	-0.107910	-0.748047	0.007317	0.078728	0.069592	0.994437
35737		21.551135	0.903217	4.250542	0.197233	3.910672	-3.061375	-0.392578	-0.160889	-0.797363	0.041663	0.026984	0.075274	0.995927
35738		22.882324	-3.818592	-4.751960	-0.619940	2.627984	-2.148181	-0.290283	-0.169434	-0.812500	0.066015	-0.008378	0.069576	0.995355
