// Start Time: Unknown
// Update Rate: 40.0Hz
// Filter Profile: human (46.1)
// Firmware Version: 4.6.0
PacketCounter	SampleTimeFine	Acc_X	Acc_Y	Acc_Z	Gyr_X	Gyr_Y	Gyr_Z	Mag_X	Mag_Y	Mag_Z	Quat_q0	Quat_q1	Quat_q2	Quat_q3
12405		4.803763	-2.246311	8.112730	-0.000790	-0.009427	0.000981	-0.668457	-0.367920	-0.272705	-0.373186	-0.191039	0.212025	-0.882769
12406		4.798690	-2.236177	8.136272	0.001446	-0.010577	-0.001240	-0.665771	-0.364746	-0.280762	-0.373169	-0.191166	0.212055	-0.882742
12407		4.817219	-2.235723	8.124337	0.001446	-0.010576	-0.001241	-0.663086	-0.368164	-0.277344	-0.373153	-0.191281	0.212087	-0.882716
12408		4.820248	-2.231898	8.106570	0.002078	-0.011058	-0.000829	-0.668701	-0.376221	-0.278564	-0.373128	-0.191415	0.212114	-0.882691
12409		4.825349	-2.233287	8.145545	0.000570	-0.009054	0.000938	-0.663330	-0.374268	-0.277588	-0.373092	-0.191517	0.212151	-0.882675
12410		4.827979	-2.230224	8.127801	-0.002147	-0.009795	0.001024	-0.653809	-0.367188	-0.277588	-0.373061	-0.191614	0.212219	-0.882651
12411		4.811328	-2.244176	8.134747	-0.001141	-0.005714	0.002395	-0.660156	-0.366211	-0.275391	-0.373024	-0.191669	0.212259	-0.882645
12412		4.805331	-2.241340	8.122604	-0.001720	-0.008941	0.001126	-0.666748	-0.367432	-0.280273	-0.372995	-0.191759	0.212315	-0.882624
12413		4.828022	-2.236476	8.117714	0.000871	-0.009052	0.000378	-0.666016	-0.365479	-0.276123	-0.372967	-0.191861	0.212339	-0.882608
12414		4.828386	-2.242927	8.149795	0.001803	-0.009533	0.000232	-0.662842	-0.367188	-0.284424	-0.372937	-0.191975	0.212353	-0.882592
12415		4.820139	-2.231061	8.133326	-0.000188	-0.009421	-0.000136	-0.662598	-0.366211	-0.273682	-0.372919	-0.192077	0.212384	-0.882570
12416		4.825635	-2.236173	8.119763	-0.000385	-0.010088	0.000576	-0.663330	-0.371094	-0.283447	-0.372891	-0.192185	0.212418	-0.882551
12417		4.841924	-2.218042	8.123049	-0.001164	-0.007232	0.001889	-0.663818	-0.369629	-0.284180	-0.372863	-0.192251	0.212447	-0.882541
12418		4.828633	-2.237046	8.117740	-0.002096	-0.006750	0.002035	-0.659424	-0.370850	-0.271484	-0.372838	-0.192311	0.212478	-0.882531
12419		4.840424	-2.217944	8.149912	-0.004908	-0.008826	0.002990	-0.668457	-0.368164	-0.274170	-0.372801	-0.192390	0.212553	-0.882512
12420		4.821040	-2.256078	8.134427	-0.004839	-0.009010	0.001617	-0.675781	-0.367676	-0.276611	-0.372775	-0.192474	0.212620	-0.882488
12421		4.825888	-2.236971	8.102897	-0.002293	-0.007416	0.002747	-0.667236	-0.368896	-0.278564	-0.372732	-0.192542	0.212657	-0.882482
12422		4.825948	-2.244167	8.134987	-0.000360	-0.008565	0.001079	-0.669922	-0.368164	-0.286377	-0.372707	-0.192630	0.212670	-0.882471
12423		4.828394	-2.240996	8.117351	-0.000590	-0.008749	0.000264	-0.668457	-0.368164	-0.280273	-0.372698	-0.192700	0.212683	-0.882456
12424		4.810403	-2.236337	8.139379	-0.002248	-0.009119	0.000866	-0.664551	-0.367432	-0.275391	-0.372678	-0.192776	0.212719	-0.882439
12425		4.819379	-2.246916	8.113305	-0.002274	-0.010638	0.000359	-0.655273	-0.356689	-0.280273	-0.372654	-0.192875	0.212758	-0.882419
12426		4.834231	-2.242313	8.113512	-0.001214	-0.010267	0.000872	-0.663818	-0.370361	-0.274902	-0.372608	-0.192931	0.212798	-0.882416
12427		4.824651	-2.237750	8.129961	-0.002043	-0.010452	0.001173	-0.656738	-0.368164	-0.266357	-0.372586	-0.193033	0.212831	-0.882395
12428		4.830178	-2.243558	8.116151	-0.003469	-0.010636	0.002591	-0.658203	-0.365234	-0.280273	-0.372533	-0.193157	0.212880	-0.882378
12429		4.832222	-2.244446	8.114689	-0.002871	-0.010635	0.001474	-0.667725	-0.367188	-0.278809	-0.372519	-0.193208	0.212927	-0.882362
12430		4.827096	-2.241827	8.101966	-0.002794	-0.012820	0.001120	-0.667236	-0.371338	-0.281738	-0.372486	-0.193303	0.212990	-0.882340
12431		4.839189	-2.257816	8.132078	-0.004451	-0.013189	0.001724	-0.660889	-0.371094	-0.277588	-0.372485	-0.193382	0.213064	-0.882305
12432		4.831584	-2.246994	8.114946	-0.002691	-0.013485	0.001272	-0.658203	-0.368408	-0.280518	-0.372486	-0.193490	0.213114	-0.882269
12433		4.836283	-2.234116	8.115902	-0.002454	-0.014519	-0.001322	-0.673584	-0.368896	-0.283691	-0.372518	-0.193585	0.213164	-0.882222
12434		4.846772	-2.237833	8.125125	-0.002119	-0.015000	-0.000354	-0.665039	-0.362305	-0.287109	-0.372513	-0.193671	0.213235	-0.882189
12435		4.849502	-2.238276	8.123374	-0.002066	-0.011963	0.000661	-0.663818	-0.358398	-0.279541	-0.372493	-0.193670	0.213302	-0.882181
12436		4.840860	-2.230677	8.123070	-0.004227	-0.010998	0.001518	-0.669434	-0.373535	-0.274902	-0.372400	-0.193699	0.213399	-0.882190
12437		4.833123	-2.245159	8.124081	-0.004654	-0.011848	0.001415	-0.666992	-0.369141	-0.280762	-0.372407	-0.193816	0.213461	-0.882147
12438		4.832448	-2.269802	8.100161	-0.005379	-0.012698	0.001870	-0.664307	-0.358643	-0.276611	-0.372412	-0.193866	0.213551	-0.882112
12439		4.833475	-2.252210	8.113572	-0.001794	-0.013476	-0.000410	-0.668457	-0.370850	-0.283691	-0.372304	-0.193956	0.213631	-0.882118
12440		4.847111	-2.235685	8.092490	-0.001084	-0.016141	-0.000357	-0.660400	-0.365479	-0.277100	-0.372352	-0.194036	0.213688	-0.882067
12441		4.845949	-2.265817	8.101553	0.000470	-0.015103	-0.001118	-0.667236	-0.370850	-0.277832	-0.372345	-0.194160	0.213719	-0.882035
12442		4.828941	-2.235376	8.105249	0.001325	-0.013400	-0.000913	-0.669678	-0.368408	-0.281250	-0.372376	-0.194280	0.213729	-0.881993
12443		4.845805	-2.251677	8.106363	0.000173	-0.016319	-0.003968	-0.665039	-0.371338	-0.272217	-0.372418	-0.194386	0.213777	-0.881940
12444		4.851097	-2.238046	8.107172	-0.000783	-0.016134	-0.000919	-0.668213	-0.366943	-0.269775	-0.372431	-0.194588	0.213809	-0.881882
12445		4.862247	-2.238153	8.099854	-0.001493	-0.013468	-0.000971	-0.660645	-0.371582	-0.281494	-0.372352	-0.194780	0.213858	-0.881861
12446		4.869605	-2.233347	8.105136	-0.001363	-0.012616	-0.000310	-0.670898	-0.367920	-0.268799	-0.372485	-0.194800	0.213880	-0.881795
12447		4.869962	-2.247115	8.100903	-0.002474	-0.009285	0.000045	-0.663574	-0.363037	-0.283203	-0.372399	-0.194964	0.213925	-0.881785
12448		4.854867	-2.225992	8.109075	-0.002758	-0.011283	0.001621	-0.672119	-0.373779	-0.280273	-0.372384	-0.194902	0.214015	-0.881783
12449		4.864272	-2.230140	8.118816	-0.002938	-0.008434	0.001825	-0.668701	-0.369141	-0.285645	-0.372471	-0.194905	0.214057	-0.881735
12450		4.872486	-2.240872	8.092946	-0.002420	-0.006251	0.001063	-0.659424	-0.360352	-0.272949	-0.372563	-0.194782	0.214103	-0.881712
12451		4.860255	-2.250044	8.107141	-0.002780	-0.006067	0.002996	-0.668457	-0.359619	-0.279053	-0.372421	-0.194802	0.214152	-0.881756
12452		4.865782	-2.245820	8.113364	-0.001732	-0.003700	0.002489	-0.666016	-0.367188	-0.270752	-0.372272	-0.194720	0.214223	-0.881820
12453		4.863657	-2.237849	8.108688	0.000661	-0.004479	0.002440	-0.666016	-0.369141	-0.278076	-0.372203	-0.194815	0.214203	-0.881833
12454		4.860238	-2.240164	8.084577	-0.003684	-0.004069	0.003657	-0.664795	-0.362793	-0.277588	-0.372251	-0.194762	0.214237	-0.881816
12455		4.855483	-2.249783	8.093546	-0.004422	-0.002920	0.003098	-0.661377	-0.360596	-0.278809	-0.372189	-0.194677	0.214306	-0.881844
12456		4.836950	-2.242469	8.099783	-0.001795	-0.003516	0.003862	-0.670166	-0.364746	-0.273926	-0.372117	-0.194567	0.214357	-0.881887
12457		4.856345	-2.223332	8.126940	-0.002753	-0.004550	0.003505	-0.659668	-0.362549	-0.285645	-0.371987	-0.194602	0.214409	-0.881921
12458		4.862250	-2.247761	8.098415	-0.003739	-0.007099	0.002637	-0.669678	-0.369385	-0.282227	-0.372089	-0.194390	0.214497	-0.881903
12459		4.833032	-2.263807	8.087635	-0.002987	-0.004733	0.002690	-0.672607	-0.365234	-0.280029	-0.372185	-0.194289	0.214543	-0.881874
12460		4.856179	-2.249575	8.102184	-0.002187	-0.006064	0.001875	-0.667725	-0.359863	-0.274170	-0.372130	-0.194248	0.214614	-0.881889
12461		4.849786	-2.246689	8.090291	-0.000194	-0.006178	0.002232	-0.663086	-0.366943	-0.287598	-0.371917	-0.194296	0.214661	-0.881957
12462		4.845753	-2.255631	8.099020	-0.002277	-0.007395	0.002738	-0.665039	-0.366455	-0.272461	-0.372111	-0.194081	0.214724	-0.881907
12463		4.861283	-2.241506	8.118745	-0.003001	-0.008245	0.003195	-0.670898	-0.375000	-0.276611	-0.372064	-0.194188	0.214757	-0.881895
12464		4.853338	-2.252221	8.103792	-0.001387	-0.007394	0.001059	-0.666748	-0.373535	-0.284668	-0.372244	-0.194265	0.214743	-0.881806
12465		4.843933	-2.244583	8.104043	-0.003531	-0.008427	0.002940	-0.676025	-0.364014	-0.282715	-0.372513	-0.194149	0.214781	-0.881708
12466		4.868279	-2.252316	8.119708	-0.003220	-0.004914	0.001876	-0.660889	-0.361328	-0.277832	-0.372443	-0.194040	0.214889	-0.881736
12467		4.850622	-2.273181	8.091007	-0.003042	-0.007760	0.001668	-0.667969	-0.361328	-0.274658	-0.372376	-0.194005	0.214946	-0.881757
12468		4.847708	-2.247072	8.101095	-0.000917	-0.007026	0.002686	-0.662354	-0.373779	-0.280029	-0.372192	-0.194061	0.215000	-0.881810
12469		4.858348	-2.237594	8.114097	-0.001890	-0.006061	0.001314	-0.667725	-0.374756	-0.281494	-0.372503	-0.194010	0.214969	-0.881697
12470		4.851241	-2.238402	8.118790	-0.003281	-0.004730	0.003249	-0.665039	-0.372314	-0.279541	-0.372785	-0.193927	0.214973	-0.881595
12471		4.865660	-2.256219	8.120846	-0.002515	-0.004363	0.004318	-0.668701	-0.360352	-0.283447	-0.372987	-0.193864	0.214968	-0.881525
12472		4.844003	-2.272159	8.104930	-0.001791	-0.003513	0.003861	-0.669189	-0.364014	-0.279785	-0.372845	-0.193694	0.215049	-0.881602
12473		4.846504	-2.259139	8.107274	0.001151	-0.003811	0.001163	-0.665771	-0.370117	-0.277100	-0.372801	-0.193640	0.215063	-0.881629
12474		4.850996	-2.260675	8.077939	0.001283	-0.002962	0.001826	-0.670410	-0.370850	-0.280029	-0.372934	-0.193640	0.215012	-0.881586
12475		4.848249	-2.255703	8.090001	0.001193	-0.004293	0.002688	-0.667969	-0.379883	-0.272461	-0.373071	-0.193608	0.214997	-0.881539
12476		4.857266	-2.252909	8.136493	-0.001156	-0.003995	0.004267	-0.666260	-0.367188	-0.279297	-0.373410	-0.193733	0.214925	-0.881385
12477		4.869778	-2.255341	8.101435	-0.002322	-0.003695	0.003607	-0.664307	-0.367188	-0.279297	-0.373442	-0.193664	0.214949	-0.881381
12478		4.853593	-2.259483	8.128494	-0.001302	-0.002846	0.002590	-0.667725	-0.369141	-0.283447	-0.373494	-0.193589	0.214944	-0.881376
12479		4.846770	-2.253367	8.100573	-0.001672	-0.000666	0.003509	-0.666748	-0.371582	-0.276855	-0.373628	-0.193416	0.214952	-0.881356
12480		4.847741	-2.247262	8.136292	0.000588	-0.002296	0.002793	-0.659424	-0.365234	-0.273926	-0.373782	-0.193419	0.214907	-0.881301
12481		4.844228	-2.246072	8.095977	-0.001291	-0.001631	0.005999	-0.664551	-0.362061	-0.278320	-0.373693	-0.193425	0.214877	-0.881345
12482		4.860264	-2.247116	8.084749	-0.002898	-0.000183	0.004223	-0.665771	-0.368164	-0.273438	-0.373556	-0.193324	0.214911	-0.881416
12483		4.846701	-2.256464	8.099752	-0.001539	0.000183	0.004172	-0.663330	-0.368652	-0.278564	-0.373569	-0.193352	0.214886	-0.881411
12484		4.841073	-2.265352	8.109461	0.001709	0.001099	0.004323	-0.671387	-0.367676	-0.278809	-0.373653	-0.193268	0.214817	-0.881410
12485		4.829678	-2.257070	8.111109	0.001902	0.001764	0.003612	-0.666016	-0.369385	-0.281006	-0.373677	-0.193198	0.214793	-0.881421
12486		4.845602	-2.257175	8.100211	0.001015	-0.001447	0.002895	-0.674805	-0.370361	-0.279785	-0.373801	-0.193106	0.214757	-0.881398
12487		4.845271	-2.260997	8.116534	-0.001702	-0.002179	0.002998	-0.666016	-0.370850	-0.277832	-0.373916	-0.193062	0.214797	-0.881349
12488		4.834294	-2.253222	8.117792	-0.000284	0.001216	0.003969	-0.664307	-0.369873	-0.272949	-0.374050	-0.193005	0.214748	-0.881316
12489		4.826475	-2.250535	8.106700	-0.001968	-0.000664	0.004068	-0.662842	-0.367920	-0.271973	-0.374111	-0.193056	0.214714	-0.881288
12490		4.826327	-2.251528	8.106512	-0.002898	-0.000181	0.004222	-0.666992	-0.367676	-0.275879	-0.374102	-0.193108	0.214688	-0.881287
12491		4.826047	-2.252690	8.106356	-0.003296	0.000485	0.004631	-0.668945	-0.372559	-0.278076	-0.374108	-0.193077	0.214699	-0.881288
12492		4.830877	-2.248601	8.112982	-0.001200	-0.003510	0.002740	-0.664062	-0.368896	-0.277832	-0.374289	-0.193077	0.214688	-0.881214
12493		4.823462	-2.249293	8.117900	-0.001586	-0.004841	0.004162	-0.663818	-0.369873	-0.272705	-0.374337	-0.193071	0.214683	-0.881196
12494		4.838039	-2.266699	8.119944	-0.000832	-0.005690	0.001820	-0.668701	-0.358643	-0.283447	-0.374396	-0.193190	0.214650	-0.881153
12495		4.828098	-2.258774	8.120635	-0.000995	-0.004841	0.003042	-0.664795	-0.370117	-0.273193	-0.374170	-0.193057	0.214739	-0.881257
12496		4.826073	-2.251074	8.115854	-0.001586	-0.004840	0.004161	-0.674805	-0.361572	-0.281982	-0.374218	-0.193150	0.214719	-0.881221
12497		4.825002	-2.265356	8.112282	-0.002546	-0.005871	0.003804	-0.674316	-0.365479	-0.283203	-0.374075	-0.193068	0.214849	-0.881268
12498		4.823173	-2.257934	8.107308	-0.002546	-0.005870	0.003804	-0.663330	-0.374268	-0.274658	-0.374069	-0.192972	0.214953	-0.881266
12499		4.812818	-2.253815	8.124394	-0.002486	-0.006053	0.002430	-0.663086	-0.362549	-0.280273	-0.374273	-0.193058	0.214908	-0.881171
12500		4.821720	-2.258125	8.134394	-0.002902	-0.008897	0.003340	-0.661133	-0.364746	-0.279297	-0.374155	-0.193025	0.214968	-0.881214
12501		4.822022	-2.269335	8.113652	-0.004985	-0.010109	0.003848	-0.660645	-0.362061	-0.274902	-0.374102	-0.193014	0.215030	-0.881224
12502		4.829254	-2.261920	8.102575	-0.001412	-0.010894	0.001552	-0.662354	-0.371094	-0.276123	-0.373949	-0.193115	0.215055	-0.881261
12503		4.832380	-2.252352	8.120828	-0.000965	-0.006536	0.001155	-0.656250	-0.364746	-0.275879	-0.374094	-0.193170	0.215012	-0.881198
12504		4.833383	-2.253113	8.120021	-0.003576	-0.004719	0.003808	-0.665527	-0.365967	-0.283936	-0.374050	-0.193156	0.215001	-0.881222
12505		4.830191	-2.281265	8.113587	-0.005333	-0.004417	0.004269	-0.661621	-0.365967	-0.277100	-0.374097	-0.192994	0.215077	-0.881219
12506		4.814585	-2.282456	8.123979	-0.001891	-0.002841	0.003707	-0.669434	-0.363525	-0.280029	-0.374090	-0.192964	0.215065	-0.881231
12507		4.825798	-2.266285	8.104126	-0.000832	-0.005687	0.001817	-0.664062	-0.370361	-0.281250	-0.374020	-0.192932	0.215116	-0.881256
12508		4.819720	-2.288290	8.110207	-0.000478	-0.005870	-0.000116	-0.665771	-0.363281	-0.275879	-0.374209	-0.192889	0.215092	-0.881190
12509		4.815452	-2.271141	8.101283	0.004008	-0.007439	0.000328	-0.665283	-0.360352	-0.270752	-0.374098	-0.192977	0.215064	-0.881225
12510		4.839325	-2.255627	8.115782	0.002118	-0.007985	0.000127	-0.665527	-0.366699	-0.282471	-0.373850	-0.193154	0.215057	-0.881293
12511		4.835388	-2.263529	8.124773	0.002771	-0.004959	0.000032	-0.674072	-0.364746	-0.282715	-0.373940	-0.193078	0.215029	-0.881278
12512		4.837076	-2.259840	8.107574	0.000259	-0.007017	0.000439	-0.659180	-0.365479	-0.280518	-0.373924	-0.193031	0.215095	-0.881280
12513		4.835193	-2.254951	8.119155	-0.000567	-0.007199	0.000745	-0.663818	-0.367188	-0.286377	-0.373986	-0.192981	0.215086	-0.881266
12514		4.826787	-2.264860	8.104659	0.002078	-0.004292	0.001000	-0.666992	-0.366943	-0.286865	-0.374135	-0.192817	0.215067	-0.881244
12515		4.824265	-2.259758	8.116684	0.001194	-0.004290	0.002680	-0.661377	-0.369873	-0.282471	-0.374242	-0.192649	0.215080	-0.881232
12516		4.831518	-2.241319	8.126119	0.002007	-0.002114	0.001362	-0.673584	-0.366943	-0.275391	-0.374428	-0.192545	0.215014	-0.881192
12517		4.842885	-2.249797	8.124380	-0.000267	-0.003989	0.002583	-0.670166	-0.358643	-0.278809	-0.374379	-0.192611	0.215040	-0.881192
12518		4.818361	-2.256721	8.104554	-0.000902	-0.003506	0.002179	-0.664795	-0.361816	-0.275146	-0.374150	-0.192576	0.215104	-0.881281
12519		4.826455	-2.260577	8.115154	-0.000133	-0.003141	0.003246	-0.666260	-0.368408	-0.280762	-0.373988	-0.192602	0.215104	-0.881344
12520		4.839459	-2.259390	8.132605	-0.000402	-0.004836	0.001920	-0.670654	-0.360352	-0.276611	-0.374082	-0.192560	0.215102	-0.881314
12521		4.816832	-2.253018	8.115605	-0.000824	-0.002474	0.004215	-0.667725	-0.369873	-0.275635	-0.373867	-0.192557	0.215149	-0.881395
12522		4.821789	-2.248797	8.122202	-0.002094	-0.001508	0.003408	-0.663330	-0.360107	-0.286865	-0.373926	-0.192573	0.215133	-0.881370
12523		4.812669	-2.259655	8.107865	-0.002747	-0.004533	0.003503	-0.664795	-0.374512	-0.270752	-0.373884	-0.192370	0.215209	-0.881413
12524		4.816560	-2.265652	8.094766	-0.002612	-0.003685	0.004165	-0.666260	-0.375000	-0.281982	-0.374008	-0.192504	0.215156	-0.881344
12525		4.814885	-2.255301	8.142481	-0.003630	-0.004530	0.005182	-0.660156	-0.363525	-0.281006	-0.374253	-0.192434	0.215162	-0.881254
12526		4.820127	-2.279731	8.114068	-0.001920	-0.004350	0.003195	-0.669434	-0.363037	-0.281006	-0.374228	-0.192352	0.215172	-0.881281
12527		4.810143	-2.271785	8.114852	-0.000005	-0.005501	0.001509	-0.656250	-0.363770	-0.278564	-0.374166	-0.192319	0.215209	-0.881305
12528		4.814060	-2.280126	8.118316	0.002385	-0.006286	0.001448	-0.666748	-0.368652	-0.291504	-0.374152	-0.192318	0.215150	-0.881325
12529		4.806450	-2.257861	8.121940	0.002736	-0.006470	-0.000485	-0.670166	-0.369629	-0.272461	-0.374382	-0.192132	0.215150	-0.881268
12530		4.826648	-2.265822	8.114322	0.002148	-0.006469	0.000635	-0.667725	-0.363281	-0.274170	-0.374397	-0.192295	0.215111	-0.881236
12531		4.805611	-2.252064	8.133185	0.001307	-0.004656	-0.000069	-0.665771	-0.370605	-0.284424	-0.374285	-0.192382	0.215095	-0.881269
12532		4.813135	-2.261675	8.107784	0.002237	-0.005139	-0.000226	-0.672363	-0.360107	-0.274902	-0.374482	-0.192307	0.215058	-0.881210
12533		4.818389	-2.259617	8.130846	0.002904	-0.004109	0.000690	-0.666260	-0.368652	-0.275879	-0.374270	-0.192382	0.215062	-0.881283
12534		4.816422	-2.250950	8.126315	0.000719	-0.004654	0.001051	-0.666260	-0.360840	-0.290283	-0.374311	-0.192437	0.215028	-0.881262
12535		4.815208	-2.264311	8.123064	0.000514	-0.003324	0.000751	-0.667480	-0.368652	-0.282959	-0.374322	-0.192209	0.215071	-0.881297
12536		4.825656	-2.254328	8.136371	0.001798	-0.006283	0.002568	-0.663574	-0.362305	-0.279053	-0.374410	-0.192168	0.215063	-0.881270
12537		4.821687	-2.262578	8.145314	0.001083	-0.006831	0.000128	-0.665771	-0.364502	-0.277100	-0.374335	-0.192181	0.215058	-0.881300
12538		4.809646	-2.242187	8.125440	0.001355	-0.005136	0.001454	-0.666748	-0.364746	-0.276123	-0.374277	-0.192215	0.215039	-0.881322
12539		4.828618	-2.257889	8.150873	-0.002538	-0.005858	0.003805	-0.663818	-0.374268	-0.281982	-0.374193	-0.192250	0.215072	-0.881342
12540		4.810571	-2.275262	8.106039	-0.001011	-0.003135	0.004925	-0.667236	-0.360840	-0.274170	-0.374409	-0.192175	0.215040	-0.881274
12541		4.807223	-2.273995	8.134772	0.002588	-0.002412	0.003134	-0.664795	-0.357422	-0.278320	-0.374209	-0.192225	0.215012	-0.881355
12542		4.814021	-2.258695	8.091605	0.000583	-0.005500	0.000388	-0.662842	-0.363037	-0.289062	-0.374016	-0.192221	0.215031	-0.881433
12543		4.804358	-2.221729	8.127204	0.001975	-0.003625	0.000845	-0.660400	-0.361816	-0.275391	-0.374103	-0.192028	0.215034	-0.881438
12544		4.824304	-2.255408	8.137654	-0.000265	-0.003984	0.002581	-0.667480	-0.363525	-0.280518	-0.373988	-0.192050	0.215012	-0.881487
12545		4.816549	-2.230842	8.124767	-0.003085	-0.004045	0.002542	-0.671387	-0.361084	-0.281494	-0.373946	-0.191995	0.215059	-0.881505
12546		4.830446	-2.245574	8.110603	-0.004332	0.003336	0.006534	-0.662598	-0.361816	-0.286621	-0.373818	-0.191833	0.215122	-0.881580
12547		4.802509	-2.294254	8.123307	0.005967	0.001632	0.000032	-0.659180	-0.367676	-0.281494	-0.373878	-0.191649	0.215048	-0.881612
12548		4.815481	-2.234665	8.141593	0.003976	-0.003448	-0.001704	-0.665771	-0.358398	-0.279541	-0.374037	-0.191610	0.214960	-0.881575
12549		4.803043	-2.242454	8.156477	0.001251	-0.004470	0.001303	-0.662109	-0.364502	-0.284668	-0.373868	-0.191596	0.214966	-0.881648
12550		4.837217	-2.261164	8.118459	-0.001330	-0.004347	0.002076	-0.659912	-0.367920	-0.283691	-0.373944	-0.191481	0.214985	-0.881636
12551		4.823899	-2.244744	8.115498	0.000867	-0.000596	0.004112	-0.669434	-0.367188	-0.278320	-0.374084	-0.191349	0.214943	-0.881615
12552		4.807673	-2.241632	8.110304	0.000387	0.004238	0.003874	-0.667236	-0.354492	-0.287354	-0.374078	-0.191282	0.214894	-0.881645
12553		4.791623	-2.263502	8.123153	0.002211	0.001759	0.003046	-0.664062	-0.361084	-0.283936	-0.373900	-0.191077	0.214909	-0.881761
12554		4.792951	-2.253160	8.142756	0.003455	-0.000423	0.000442	-0.663086	-0.363770	-0.282959	-0.373883	-0.190971	0.214866	-0.881802
12555		4.774094	-2.243959	8.149959	0.004520	-0.000059	0.000947	-0.664062	-0.364258	-0.274902	-0.373915	-0.190885	0.214793	-0.881824
12556		4.823745	-2.264801	8.117861	0.005799	-0.005929	-0.002532	-0.665527	-0.365479	-0.281250	-0.373854	-0.191016	0.214692	-0.881846
12557		4.789842	-2.254751	8.135797	0.007034	-0.003205	-0.000853	-0.660400	-0.363037	-0.291748	-0.373885	-0.191019	0.214596	-0.881856
12558		4.788518	-2.248577	8.147455	0.003248	-0.014990	-0.001123	-0.661377	-0.368408	-0.278809	-0.374030	-0.190945	0.214636	-0.881801
12559		4.813411	-2.240555	8.124453	-0.005803	-0.020663	0.001392	-0.664307	-0.366455	-0.283936	-0.374086	-0.191105	0.214739	-0.881717
12560		4.847970	-2.195430	8.149668	-0.007622	-0.012686	0.000711	-0.661377	-0.363770	-0.276611	-0.374177	-0.191092	0.214858	-0.881653
12561		4.825303	-2.256655	8.111871	-0.004557	-0.012146	-0.001336	-0.664307	-0.371094	-0.280273	-0.374140	-0.191197	0.214906	-0.881634
12562		4.816948	-2.273833	8.129866	-0.001049	-0.007553	-0.000882	-0.666016	-0.365967	-0.283936	-0.374309	-0.191226	0.214896	-0.881558
12563		4.779687	-2.231232	8.125700	0.005210	-0.000725	-0.000029	-0.659180	-0.370605	-0.285645	-0.374382	-0.191147	0.214822	-0.881563
12564		4.787421	-2.236966	8.153261	0.005485	-0.004229	-0.000092	-0.663818	-0.358154	-0.286133	-0.374625	-0.191069	0.214736	-0.881497
12565		4.825526	-2.252572	8.139308	0.007292	0.000482	-0.000545	-0.662109	-0.368164	-0.286621	-0.374530	-0.190945	0.214653	-0.881585
12566		4.798363	-2.238874	8.136257	0.009426	0.006704	-0.001047	-0.660400	-0.365967	-0.284912	-0.374729	-0.190762	0.214489	-0.881579
12567		4.799310	-2.226793	8.156564	0.008998	0.000660	-0.002536	-0.658203	-0.371826	-0.284424	-0.374852	-0.190673	0.214348	-0.881581
12568		4.798406	-2.236050	8.137008	-0.001982	-0.007365	0.002176	-0.663086	-0.374023	-0.285889	-0.375083	-0.190616	0.214357	-0.881493
12569		4.809349	-2.226610	8.149862	-0.001841	-0.006222	-0.000058	-0.665039	-0.365234	-0.279541	-0.375386	-0.190546	0.214369	-0.881376
12570		4.792862	-2.236750	8.140920	-0.001803	-0.004416	-0.002442	-0.663818	-0.362305	-0.283691	-0.375387	-0.190559	0.214366	-0.881374
12571		4.781567	-2.242102	8.138592	-0.004093	-0.009788	-0.000717	-0.663086	-0.365723	-0.278809	-0.375328	-0.190552	0.214431	-0.881384
12572		4.778060	-2.225735	8.129015	-0.001409	-0.010573	-0.001345	-0.665527	-0.371826	-0.286377	-0.375312	-0.190639	0.214444	-0.881369
12573		4.801655	-2.245694	8.141353	0.002976	-0.011476	-0.001068	-0.662598	-0.377441	-0.282471	-0.375524	-0.190650	0.214438	-0.881278
12574		4.806130	-2.231785	8.142819	0.001428	-0.012501	-0.000300	-0.668701	-0.365967	-0.274658	-0.375850	-0.190715	0.214426	-0.881128
12575		4.798534	-2.245035	8.144224	-0.000189	-0.011350	0.000831	-0.661865	-0.371582	-0.280762	-0.375749	-0.190873	0.214443	-0.881132
12576		4.792874	-2.219862	8.130259	-0.000531	-0.016064	-0.001520	-0.661133	-0.364014	-0.282715	-0.375898	-0.190988	0.214468	-0.881038
12577		4.789514	-2.241579	8.134924	-0.001218	-0.020591	-0.001938	-0.666992	-0.371338	-0.285889	-0.375844	-0.191122	0.214533	-0.881016
12578		4.829575	-2.218303	8.132091	0.000399	-0.022032	-0.000175	-0.662842	-0.364502	-0.280518	-0.375996	-0.191235	0.214614	-0.880907
12579		4.828189	-2.226805	8.139500	-0.000048	-0.015987	0.002998	-0.659668	-0.372314	-0.280273	-0.375885	-0.191338	0.214655	-0.880922
12580		4.818137	-2.232046	8.136498	0.000605	-0.012968	0.002901	-0.666748	-0.367676	-0.275635	-0.376011	-0.191406	0.214655	-0.880853
12581		4.810286	-2.219803	8.119985	0.005626	-0.014057	0.000674	-0.663086	-0.362793	-0.285400	-0.375959	-0.191587	0.214616	-0.880846
12582		4.821436	-2.243988	8.130976	0.004783	-0.012248	-0.000026	-0.666016	-0.367432	-0.279053	-0.375884	-0.191607	0.214597	-0.880878
12583		4.834605	-2.198618	8.144857	-0.001406	-0.010856	0.001550	-0.673340	-0.363281	-0.283691	-0.375875	-0.191666	0.214630	-0.880861
12584		4.823674	-2.257965	8.125519	-0.004484	-0.009406	0.002595	-0.671631	-0.371094	-0.277344	-0.375795	-0.191636	0.214736	-0.880876
12585		4.858614	-2.252405	8.137784	-0.002560	-0.007058	0.000402	-0.663330	-0.371094	-0.277100	-0.375893	-0.191679	0.214769	-0.880816
12586		4.863167	-2.204722	8.140968	-0.005484	-0.006455	0.000224	-0.663818	-0.369629	-0.287354	-0.376004	-0.191695	0.214803	-0.880757
12587		4.841158	-2.221510	8.125164	-0.010261	0.000010	0.004656	-0.657471	-0.371582	-0.278564	-0.376153	-0.191471	0.214904	-0.880718
12588		4.830884	-2.240881	8.143825	-0.010967	-0.002526	0.003229	-0.661133	-0.368896	-0.276611	-0.376278	-0.191390	0.214970	-0.880666
12589		4.813796	-2.250034	8.118240	-0.010725	-0.002342	0.004040	-0.658203	-0.366943	-0.281250	-0.376303	-0.191336	0.215044	-0.880649
12590		4.819067	-2.247085	8.124297	-0.005706	-0.003433	0.001810	-0.661865	-0.368896	-0.284424	-0.376325	-0.191264	0.215066	-0.880650
12591		4.841844	-2.233878	8.138683	-0.007044	-0.000592	0.004272	-0.669922	-0.369629	-0.280029	-0.376419	-0.191110	0.215118	-0.880631
12592		4.811311	-2.247054	8.112448	-0.004480	0.000978	0.005376	-0.653564	-0.361572	-0.287354	-0.376482	-0.191013	0.215151	-0.880616
12593		4.813462	-2.263658	8.149316	-0.003864	-0.002706	0.003373	-0.668701	-0.364258	-0.282959	-0.376384	-0.190865	0.215155	-0.880690
12594		4.829150	-2.239340	8.119878	-0.000426	-0.001140	0.002794	-0.659424	-0.368164	-0.284668	-0.376338	-0.190785	0.215153	-0.880727
12595		4.820666	-2.243027	8.142087	0.000865	0.001393	0.003099	-0.664062	-0.371338	-0.284424	-0.376416	-0.190654	0.215097	-0.880736
12596		4.812279	-2.239870	8.131478	0.000505	0.003567	0.004026	-0.665039	-0.365234	-0.283447	-0.376570	-0.190504	0.215051	-0.880714
12597		4.816625	-2.231977	8.122132	-0.000113	0.002060	0.004634	-0.663330	-0.358887	-0.283203	-0.376537	-0.190383	0.215021	-0.880761
12598		4.813300	-2.249619	8.136256	-0.002571	0.005019	0.005073	-0.670654	-0.367920	-0.283203	-0.376336	-0.190224	0.215000	-0.880887
12599		4.767840	-2.251603	8.141297	0.001295	0.002238	0.003201	-0.656250	-0.359619	-0.285889	-0.376387	-0.190125	0.214965	-0.880895
12600		4.795637	-2.228910	8.146407	-0.002973	-0.004697	0.002696	-0.669434	-0.364502	-0.281738	-0.376245	-0.190039	0.214975	-0.880971
12601		4.789705	-2.248624	8.135803	-0.005480	-0.007040	0.006009	-0.663818	-0.365234	-0.286133	-0.376149	-0.190025	0.215055	-0.880996
12602		4.796939	-2.263076	8.126350	-0.000225	-0.007657	0.001696	-0.655518	-0.371094	-0.283691	-0.376162	-0.189991	0.215069	-0.880994
12603		4.815912	-2.256489	8.150138	0.002748	-0.008446	0.000499	-0.659912	-0.372803	-0.272705	-0.376312	-0.190006	0.215015	-0.880940
12604		4.814718	-2.247847	8.145161	0.000704	-0.008140	0.001533	-0.663330	-0.370605	-0.287354	-0.376372	-0.190146	0.214959	-0.880898
12605		4.798857	-2.254580	8.119497	-0.000704	-0.008315	0.002967	-0.665771	-0.366211	-0.276611	-0.376512	-0.190098	0.214983	-0.880843
12606		4.812207	-2.231806	8.134939	-0.001480	-0.008678	0.001904	-0.665527	-0.375244	-0.277344	-0.376441	-0.190188	0.214990	-0.880852
12607		4.812869	-2.239285	8.167153	-0.001801	-0.004996	0.003346	-0.659180	-0.364990	-0.277832	-0.376602	-0.190220	0.214983	-0.880778
12608		4.814029	-2.236799	8.149821	-0.004039	-0.005056	0.002196	-0.658936	-0.371338	-0.286621	-0.376520	-0.190235	0.214984	-0.880809
12609		4.774592	-2.262571	8.125951	-0.002038	-0.005473	0.005429	-0.665283	-0.367188	-0.283203	-0.376649	-0.190149	0.214999	-0.880769
12610		4.809191	-2.253495	8.122052	0.000055	-0.005963	0.003020	-0.664551	-0.367676	-0.284180	-0.376660	-0.190131	0.214997	-0.880769
12611		4.799372	-2.248509	8.139410	0.002062	-0.007777	0.001470	-0.664062	-0.370117	-0.282959	-0.376700	-0.190135	0.214979	-0.880755
12612		4.800900	-2.248322	8.138560	0.000648	-0.007658	0.000009	-0.673340	-0.365234	-0.286133	-0.376809	-0.190149	0.214966	-0.880709
12613		4.792152	-2.233254	8.106048	-0.001340	-0.007830	0.002566	-0.660645	-0.367432	-0.281982	-0.376814	-0.190115	0.215024	-0.880700
12614		4.799050	-2.254183	8.129664	-0.002061	-0.008672	0.003026	-0.656738	-0.365479	-0.274902	-0.376808	-0.190130	0.215039	-0.880696
12615		4.803717	-2.263288	8.132454	-0.001704	-0.010843	0.002097	-0.659424	-0.368896	-0.276123	-0.376682	-0.190255	0.215022	-0.880727
12616		4.799649	-2.250502	8.139615	-0.001770	-0.008672	0.002464	-0.660156	-0.364258	-0.286621	-0.376664	-0.190338	0.215010	-0.880720
12617		4.819595	-2.263088	8.147933	-0.002079	-0.006683	0.002019	-0.664062	-0.365479	-0.285156	-0.376646	-0.190276	0.215029	-0.880736
12618		4.810149	-2.255084	8.148582	-0.000224	-0.007650	0.001691	-0.673096	-0.370361	-0.279297	-0.376644	-0.190254	0.215037	-0.880739
12619		4.803215	-2.255488	8.153490	-0.001714	-0.003668	0.002488	-0.666504	-0.366211	-0.287354	-0.376713	-0.190253	0.215051	-0.880707
12620		4.813627	-2.242762	8.150245	-0.000609	-0.001800	0.003503	-0.671631	-0.361816	-0.276611	-0.376748	-0.190137	0.215055	-0.880716
12621		4.809740	-2.266256	8.128066	0.001845	0.000724	0.001561	-0.654297	-0.368652	-0.284912	-0.376607	-0.190136	0.214997	-0.880790
12622		4.821113	-2.243016	8.144829	0.001011	0.002236	0.003762	-0.665039	-0.363037	-0.280762	-0.376671	-0.190006	0.214918	-0.880810
12623		4.890738	-2.254167	8.144396	0.000336	0.008089	0.006134	-0.657471	-0.370850	-0.287109	-0.376560	-0.189858	0.214844	-0.880908
12624		4.755281	-2.248943	8.110411	-0.002240	0.015096	0.010207	-0.659180	-0.370605	-0.280762	-0.376670	-0.189535	0.214772	-0.880948
12625		4.784863	-2.247378	8.142060	0.000094	0.014788	0.008608	-0.663818	-0.369873	-0.282471	-0.376721	-0.189308	0.214655	-0.881003
12626		4.776913	-2.252868	8.136852	0.003523	0.011161	0.006628	-0.666748	-0.367676	-0.281982	-0.376776	-0.189130	0.214530	-0.881048
12627		4.784800	-2.264606	8.153432	0.004930	0.011337	0.005193	-0.662598	-0.363281	-0.279053	-0.376791	-0.188970	0.214393	-0.881110
12628		4.767695	-2.229324	8.167660	0.002370	0.009479	0.006984	-0.661865	-0.367432	-0.281982	-0.376648	-0.188848	0.214275	-0.881226
12629		4.759359	-2.217263	8.177125	-0.005307	0.009386	0.010859	-0.666260	-0.373291	-0.289551	-0.376603	-0.188648	0.214257	-0.881292
12630		4.733535	-2.266460	8.144600	-0.008148	0.005838	0.011323	-0.659180	-0.363037	-0.284912	-0.376757	-0.188396	0.214322	-0.881265
12631		4.742926	-2.280739	8.159580	-0.005196	0.000149	0.005835	-0.659668	-0.366455	-0.288086	-0.376665	-0.188287	0.214334	-0.881324
12632		4.758001	-2.260739	8.146687	-0.003719	-0.002143	0.006929	-0.665527	-0.366943	-0.285889	-0.376665	-0.188172	0.214355	-0.881344
12633		4.769862	-2.239311	8.162709	-0.005126	-0.002316	0.008362	-0.668457	-0.366455	-0.281738	-0.376650	-0.188078	0.214404	-0.881358
12634		4.767614	-2.254676	8.159454	-0.006021	-0.000027	0.006146	-0.661377	-0.366699	-0.278320	-0.376625	-0.188007	0.214442	-0.881375
12635		4.739534	-2.279573	8.153828	-0.004803	-0.000514	0.005422	-0.668945	-0.361084	-0.282715	-0.376565	-0.187984	0.214434	-0.881407
12636		4.762295	-2.262718	8.151980	-0.002226	-0.000645	0.004637	-0.661865	-0.370605	-0.282227	-0.376440	-0.187933	0.214435	-0.881471
12637		4.767180	-2.255135	8.142247	-0.001125	0.001518	0.002760	-0.659424	-0.364990	-0.288330	-0.376527	-0.187873	0.214381	-0.881460
12638		4.789640	-2.266358	8.175182	-0.001220	0.001887	0.005505	-0.662842	-0.362793	-0.281006	-0.376520	-0.187735	0.214349	-0.881501
12639		4.722506	-2.248800	8.166797	-0.006406	0.007524	0.009844	-0.660889	-0.369141	-0.283203	-0.376379	-0.187580	0.214344	-0.881595
12640		4.776189	-2.257374	8.161115	0.002410	0.004103	0.004217	-0.655762	-0.354492	-0.285156	-0.376423	-0.187498	0.214241	-0.881618
12641		4.733977	-2.289382	8.171651	-0.002845	0.005030	0.005636	-0.662842	-0.368896	-0.284668	-0.376179	-0.187352	0.214199	-0.881764
12642		4.749536	-2.258853	8.179097	-0.001399	0.006711	0.004718	-0.658936	-0.353271	-0.288574	-0.376238	-0.187213	0.214135	-0.881784
12643		4.724493	-2.256295	8.179919	-0.003278	0.004188	0.005533	-0.663086	-0.366211	-0.280273	-0.376025	-0.187040	0.214126	-0.881913
12644		4.723557	-2.254679	8.163581	-0.006728	0.004328	0.007998	-0.664062	-0.366699	-0.290039	-0.375949	-0.186945	0.214123	-0.881967
12645		4.716648	-2.296837	8.154908	-0.005082	-0.002495	0.006984	-0.660400	-0.374268	-0.285400	-0.375978	-0.186833	0.214170	-0.881967
12646		4.715701	-2.304516	8.118334	-0.000887	-0.005477	0.003177	-0.660156	-0.364014	-0.282959	-0.376122	-0.186837	0.214139	-0.881912
12647		4.745126	-2.256737	8.174235	0.002131	-0.006460	0.000608	-0.670166	-0.367920	-0.284912	-0.376072	-0.186891	0.214078	-0.881937
12648		4.743915	-2.273689	8.187235	-0.002198	-0.006017	0.001864	-0.652832	-0.352051	-0.283447	-0.376098	-0.186908	0.214090	-0.881919
12649		4.737604	-2.267551	8.158908	-0.002536	-0.005829	0.003797	-0.661865	-0.363037	-0.286133	-0.375822	-0.186904	0.214086	-0.882038
12650		4.735747	-2.263556	8.170415	-0.003888	-0.007878	0.001969	-0.669434	-0.359131	-0.285645	-0.375788	-0.186907	0.214118	-0.882045
12651		4.754600	-2.255290	8.177488	-0.006086	-0.005024	0.006116	-0.657715	-0.368896	-0.279297	-0.375630	-0.186870	0.214188	-0.882103
12652		4.725590	-2.289900	8.151962	-0.003611	-0.004494	0.005184	-0.658936	-0.363281	-0.289795	-0.375598	-0.186903	0.214162	-0.882116
12653		4.720272	-2.277989	8.159670	-0.004828	-0.004004	0.005907	-0.664062	-0.361572	-0.285400	-0.375597	-0.186805	0.214206	-0.882126
12654		4.739255	-2.291457	8.168301	-0.003665	-0.004014	0.003663	-0.664551	-0.363037	-0.288818	-0.375519	-0.186774	0.214223	-0.882162
12655		4.745070	-2.287616	8.174341	-0.002334	-0.007154	0.004091	-0.662354	-0.361572	-0.288086	-0.375488	-0.186749	0.214253	-0.882173
12656		4.730356	-2.284859	8.168267	-0.002259	-0.003843	0.002231	-0.653564	-0.359131	-0.285400	-0.375465	-0.186696	0.214259	-0.882193
12657		4.719430	-2.308236	8.151067	0.002474	-0.006941	0.001562	-0.660889	-0.356934	-0.284668	-0.375398	-0.186712	0.214207	-0.882230
12658		4.742038	-2.252928	8.179398	0.002425	-0.008154	-0.001847	-0.660889	-0.364014	-0.288818	-0.375292	-0.186768	0.214164	-0.882274
12659		4.753909	-2.261289	8.177207	-0.000121	-0.003126	0.003232	-0.666260	-0.371582	-0.289307	-0.375312	-0.186706	0.214142	-0.882284
12660		4.684678	-2.294452	8.180353	-0.001973	-0.002152	0.003559	-0.668945	-0.361328	-0.286377	-0.375416	-0.186640	0.214129	-0.882257
12661		4.719673	-2.281934	8.159913	-0.000042	-0.008976	0.001978	-0.660645	-0.361084	-0.287598	-0.375320	-0.186685	0.214134	-0.882287
12662		4.734247	-2.277320	8.160099	-0.000387	-0.008494	0.001019	-0.657715	-0.366699	-0.282959	-0.375292	-0.186697	0.214134	-0.882296
12663		4.734318	-2.286774	8.139735	0.004723	-0.010271	-0.001069	-0.657959	-0.366211	-0.286377	-0.375307	-0.186808	0.214048	-0.882288
12664		4.735077	-2.270903	8.170748	0.003594	-0.008458	-0.001201	-0.659180	-0.367676	-0.282471	-0.375366	-0.186856	0.213982	-0.882268
12665		4.739421	-2.278207	8.174208	0.006354	-0.006239	-0.000807	-0.660400	-0.370605	-0.284424	-0.375385	-0.186935	0.213858	-0.882273
12666		4.733962	-2.242297	8.181022	-0.000271	-0.003676	-0.000324	-0.655029	-0.357178	-0.284668	-0.375477	-0.186939	0.213802	-0.882247
12667		4.733608	-2.274361	8.162294	-0.002054	-0.005166	0.002527	-0.661377	-0.367920	-0.289307	-0.375379	-0.186913	0.213800	-0.882295
12668		4.726551	-2.274734	8.167289	-0.000114	-0.004817	0.001343	-0.655518	-0.364502	-0.289551	-0.375466	-0.186874	0.213778	-0.882271
12669		4.720416	-2.293181	8.157037	-0.000114	-0.004817	0.001343	-0.658691	-0.366699	-0.286865	-0.375541	-0.186817	0.213759	-0.882256
12670		4.715277	-2.257963	8.163483	0.001711	-0.009283	0.001501	-0.662354	-0.364502	-0.290039	-0.375576	-0.186855	0.213729	-0.882240
12671		4.721771	-2.259825	8.202282	0.000702	-0.011811	0.000632	-0.669922	-0.363525	-0.289062	-0.375602	-0.186890	0.213740	-0.882219
12672		4.730619	-2.269914	8.175635	-0.000684	-0.015657	0.001180	-0.666748	-0.360840	-0.288086	-0.375549	-0.186982	0.213790	-0.882210
12673		4.733232	-2.273692	8.190446	-0.000499	-0.013304	0.002360	-0.656982	-0.371094	-0.287598	-0.375458	-0.187045	0.213827	-0.882226
12674		4.724921	-2.240881	8.172363	-0.005732	-0.016047	0.002903	-0.660645	-0.372314	-0.288818	-0.375561	-0.187109	0.213908	-0.882149
12675		4.719039	-2.277815	8.173872	-0.009010	-0.020424	0.003264	-0.668457	-0.364258	-0.277588	-0.375669	-0.187200	0.214054	-0.882048
12676		4.716962	-2.248876	8.194241	-0.013040	-0.027438	0.006457	-0.663330	-0.369141	-0.289551	-0.375457	-0.187454	0.214261	-0.882035
12677		4.765817	-2.283337	8.166784	-0.015724	-0.032108	0.008583	-0.665771	-0.355713	-0.283203	-0.375446	-0.187618	0.214559	-0.881932
12678		4.763872	-2.354636	8.119469	-0.006980	-0.026199	0.003700	-0.667969	-0.361816	-0.292480	-0.375216	-0.187820	0.214720	-0.881948
12679		4.771333	-2.288519	8.136330	0.000879	-0.019992	-0.002390	-0.654541	-0.361328	-0.282715	-0.375243	-0.187923	0.214783	-0.881899
12680		4.781665	-2.248186	8.142597	-0.000742	-0.016851	-0.002247	-0.658447	-0.364990	-0.281982	-0.375226	-0.188054	0.214798	-0.881875
12681		4.749935	-2.296477	8.158749	-0.001938	-0.018343	-0.000519	-0.656006	-0.364502	-0.284424	-0.375216	-0.188206	0.214833	-0.881838
12682		4.773830	-2.267031	8.134211	-0.003644	-0.016525	0.000479	-0.659180	-0.363525	-0.278320	-0.375242	-0.188297	0.214891	-0.881794
12683		4.797966	-2.291769	8.161991	-0.002734	-0.013338	0.001202	-0.666992	-0.362549	-0.288086	-0.375164	-0.188417	0.214904	-0.881798
12684		4.779591	-2.289881	8.132113	0.000977	-0.008124	0.000941	-0.656250	-0.363525	-0.291504	-0.375155	-0.188416	0.214901	-0.881803
12685		4.785870	-2.284777	8.138232	0.001043	-0.004820	-0.000913	-0.667480	-0.356934	-0.295166	-0.375294	-0.188330	0.214884	-0.881766
12686		4.744810	-2.271720	8.145672	0.004396	-0.006285	-0.002541	-0.673340	-0.363770	-0.280762	-0.375317	-0.188262	0.214863	-0.881776
12687		4.757299	-2.282913	8.159651	0.001817	-0.011619	-0.000264	-0.668213	-0.364746	-0.282227	-0.375205	-0.188391	0.214834	-0.881803
12688		4.759327	-2.264626	8.173347	-0.001398	-0.016468	0.001618	-0.660400	-0.362305	-0.281738	-0.375125	-0.188529	0.214870	-0.881799
12689		4.765445	-2.267256	8.142174	-0.006499	-0.014690	0.003729	-0.664795	-0.364502	-0.283691	-0.375047	-0.188603	0.214956	-0.881795
12690		4.730500	-2.304639	8.137912	-0.001295	-0.017126	0.001761	-0.663818	-0.363037	-0.282715	-0.375001	-0.188725	0.214998	-0.881778
12691		4.840812	-2.296161	8.149867	0.002136	-0.018956	-0.002617	-0.666504	-0.357422	-0.284668	-0.374969	-0.188898	0.215000	-0.881754
12692		4.783373	-2.271102	8.146986	0.001712	-0.012639	-0.002308	-0.668945	-0.364746	-0.285400	-0.374890	-0.188976	0.214998	-0.881772
12693		4.775275	-2.255560	8.114198	-0.001430	-0.010809	0.001508	-0.674561	-0.359375	-0.286377	-0.374866	-0.189016	0.215022	-0.881768
12694		4.777952	-2.281318	8.130557	-0.001079	-0.011289	0.002463	-0.661133	-0.364258	-0.285645	-0.374744	-0.189053	0.215063	-0.881801
12695		4.803540	-2.285270	8.128703	0.000547	-0.008957	0.000834	-0.666016	-0.364258	-0.286133	-0.374781	-0.189063	0.215056	-0.881785
12696		4.813813	-2.256914	8.157142	0.002840	-0.001937	0.001010	-0.663330	-0.364990	-0.284424	-0.374802	-0.189011	0.214994	-0.881803
12697		4.768311	-2.286011	8.127591	0.000166	-0.001139	0.001664	-0.660156	-0.366943	-0.283936	-0.374828	-0.188948	0.214950	-0.881816
12698		4.783262	-2.267831	8.131560	0.001753	0.001376	0.001407	-0.665039	-0.367676	-0.277344	-0.374896	-0.188868	0.214870	-0.881824
12699		4.793154	-2.279464	8.146927	0.003136	0.005214	0.000860	-0.665283	-0.356445	-0.281494	-0.374875	-0.188826	0.214726	-0.881877
12700		4.783194	-2.257170	8.152395	0.003039	0.007563	0.002606	-0.661621	-0.362061	-0.283447	-0.374757	-0.188700	0.214613	-0.881981
12701		4.786923	-2.270713	8.145009	0.000370	0.010048	0.005151	-0.660400	-0.360596	-0.281006	-0.374735	-0.188511	0.214522	-0.882053
12702		4.750891	-2.277385	8.133253	-0.000370	0.011194	0.004612	-0.669189	-0.361816	-0.286621	-0.374685	-0.188327	0.214423	-0.882138
12703		4.732391	-2.259415	8.161022	0.000589	0.005057	0.004550	-0.666260	-0.364746	-0.282959	-0.374629	-0.188189	0.214363	-0.882206
12704		4.727355	-2.283392	8.139108	-0.002937	0.000508	0.004106	-0.653809	-0.364258	-0.274658	-0.374580	-0.188119	0.214338	-0.882248
12705		4.761346	-2.278107	8.151687	-0.001015	-0.006300	0.002503	-0.672363	-0.361328	-0.284424	-0.374516	-0.188185	0.214286	-0.882273
12706		4.734263	-2.283613	8.160838	-0.004191	-0.011330	0.003015	-0.667969	-0.362061	-0.283691	-0.374383	-0.188239	0.214339	-0.882305
12707		4.767583	-2.263172	8.135110	-0.003125	-0.012661	0.001618	-0.657471	-0.364746	-0.294434	-0.374296	-0.188312	0.214380	-0.882316
12708		4.747758	-2.307293	8.152924	-0.003519	-0.013682	0.000142	-0.662354	-0.371094	-0.286865	-0.374477	-0.188278	0.214476	-0.882224
12709		4.780578	-2.271618	8.158992	-0.001663	-0.012967	0.001695	-0.662842	-0.371094	-0.288330	-0.374555	-0.188335	0.214501	-0.882172
12710		4.790707	-2.272416	8.151756	-0.003283	-0.009832	0.001845	-0.662354	-0.372559	-0.282227	-0.374658	-0.188336	0.214536	-0.882120
12711		4.784852	-2.294583	8.157722	0.001067	-0.005110	0.001973	-0.663086	-0.365234	-0.289551	-0.374712	-0.188361	0.214473	-0.882107
12712		4.772040	-2.277684	8.155004	0.000473	-0.003123	0.002099	-0.663818	-0.368896	-0.284180	-0.374774	-0.188285	0.214453	-0.882102
12713		4.759755	-2.282336	8.153609	0.003146	-0.003921	0.001444	-0.657471	-0.364990	-0.283691	-0.374807	-0.188287	0.214377	-0.882106
12714		4.755104	-2.264811	8.145204	0.003777	-0.006092	-0.000056	-0.666016	-0.363525	-0.287109	-0.374845	-0.188306	0.214304	-0.882103
12715		4.762071	-2.278019	8.135988	-0.000975	-0.006480	0.001129	-0.665771	-0.368408	-0.288086	-0.374844	-0.188289	0.214306	-0.882107
12716		4.749796	-2.268283	8.165914	-0.001019	-0.007983	0.000609	-0.665771	-0.361328	-0.282959	-0.374908	-0.188287	0.214310	-0.882079
12717		4.761843	-2.255375	8.161742	-0.001580	-0.011643	0.000840	-0.662842	-0.362061	-0.286865	-0.374833	-0.188357	0.214329	-0.882091
12718		4.773433	-2.295855	8.140374	-0.000119	-0.011952	0.000917	-0.663086	-0.363525	-0.281494	-0.374821	-0.188397	0.214347	-0.882083
12719		4.759304	-2.273736	8.149373	0.001359	-0.010463	-0.001378	-0.662842	-0.370117	-0.284668	-0.374794	-0.188482	0.214313	-0.882085
12720		4.781198	-2.253837	8.175605	0.001163	-0.007455	0.000223	-0.652588	-0.361816	-0.276855	-0.374859	-0.188510	0.214275	-0.882061
12721		4.780590	-2.263601	8.155385	0.000340	-0.007629	0.000539	-0.660645	-0.360840	-0.284180	-0.374822	-0.188569	0.214229	-0.882075
12722		4.783806	-2.253802	8.174090	0.000578	-0.003782	0.002243	-0.664307	-0.360352	-0.279053	-0.374792	-0.188533	0.214197	-0.882103
12723		4.769221	-2.268821	8.153318	-0.001727	-0.001668	0.001485	-0.663330	-0.355469	-0.279053	-0.374696	-0.188516	0.214158	-0.882157
12724		4.775008	-2.282538	8.144629	0.000250	0.000181	0.000810	-0.658936	-0.357666	-0.287842	-0.374567	-0.188479	0.214095	-0.882235
12725		4.756165	-2.277292	8.168820	0.001506	0.001193	0.000596	-0.666992	-0.364014	-0.285889	-0.374601	-0.188356	0.214050	-0.882258
12726		4.766392	-2.281471	8.151079	0.006670	0.004400	-0.001489	-0.666504	-0.359375	-0.288330	-0.374619	-0.188275	0.213902	-0.882303
12727		4.760662	-2.287612	8.161837	0.012199	0.003462	-0.003514	-0.663818	-0.364502	-0.277344	-0.374631	-0.188207	0.213712	-0.882359
12728		4.828410	-2.238131	8.190515	0.007194	0.008245	-0.000350	-0.668701	-0.358398	-0.292236	-0.374573	-0.188152	0.213507	-0.882445
12729		4.710188	-2.273694	8.149414	0.002541	0.012550	0.003768	-0.661133	-0.361084	-0.280029	-0.374566	-0.187890	0.213415	-0.882526
12730		4.769380	-2.240982	8.152221	0.003172	0.010380	0.002268	-0.663818	-0.363281	-0.284668	-0.374512	-0.187754	0.213268	-0.882613
12731		4.728401	-2.262411	8.183357	-0.001441	0.009146	0.002227	-0.661865	-0.360840	-0.282227	-0.374512	-0.187583	0.213190	-0.882669
12732		4.794349	-2.266120	8.178296	-0.004048	0.009469	0.004401	-0.657715	-0.362061	-0.280273	-0.374460	-0.187403	0.213139	-0.882741
12733		4.745106	-2.278844	8.165338	-0.008193	0.014246	0.005872	-0.658691	-0.371338	-0.281982	-0.374440	-0.187158	0.213106	-0.882809
12734		4.724979	-2.244628	8.208471	-0.011990	0.011501	0.003621	-0.662598	-0.363770	-0.290527	-0.374523	-0.186941	0.213108	-0.882820
12735		4.713163	-2.273138	8.163372	-0.019886	0.011261	0.006729	-0.659180	-0.360840	-0.287109	-0.374590	-0.186608	0.213255	-0.882826
12736		4.714550	-2.303469	8.152245	-0.009591	0.007040	0.002635	-0.666260	-0.355957	-0.285156	-0.374632	-0.186400	0.213289	-0.882844
12737		4.727213	-2.269000	8.171961	-0.006975	0.008405	0.002354	-0.656006	-0.359131	-0.287842	-0.374539	-0.186220	0.213279	-0.882924
12738		4.811788	-2.248223	8.258727	-0.024305	0.012383	0.007862	-0.658936	-0.366455	-0.292480	-0.374599	-0.185856	0.213471	-0.882929
12739		4.839366	-2.228658	8.254106	-0.070198	0.032412	0.024914	-0.670410	-0.370361	-0.287109	-0.374703	-0.185000	0.214114	-0.882909
12740		4.758962	-2.250566	8.207619	-0.106177	0.052617	0.039154	-0.658203	-0.354736	-0.288574	-0.374628	-0.183812	0.215041	-0.882963
12741		4.550672	-2.404967	8.137266	-0.083500	0.043715	0.028535	-0.654785	-0.364502	-0.291748	-0.374601	-0.182799	0.215773	-0.883006
12742		4.718260	-2.413919	8.198583	-0.052441	0.029990	0.013685	-0.654541	-0.349121	-0.296875	-0.374765	-0.182120	0.216182	-0.882977
12743		4.968870	-2.253441	8.329088	-0.095533	0.068856	0.032309	-0.658203	-0.355957	-0.290527	-0.374858	-0.180698	0.216973	-0.883036
12744		4.603253	-2.414279	8.137150	-0.115779	0.107126	0.038574	-0.664062	-0.353516	-0.293213	-0.374951	-0.178839	0.217765	-0.883180
12745		4.588157	-2.473940	8.204161	-0.079840	0.097562	0.013624	-0.662842	-0.356201	-0.308105	-0.375136	-0.177340	0.218143	-0.883310
12746		4.886949	-2.368091	8.282590	-0.081028	0.145486	0.007120	-0.654785	-0.352295	-0.306396	-0.375706	-0.175224	0.218342	-0.883441
12747		4.317205	-2.566261	8.091460	-0.052409	0.167377	-0.028685	-0.645752	-0.345703	-0.308350	-0.376662	-0.173111	0.218037	-0.883526
12748		4.338839	-2.472116	8.174864	0.010350	0.133085	-0.108705	-0.647705	-0.351074	-0.308838	-0.378283	-0.171865	0.217042	-0.883322
12749		4.386876	-2.552133	8.145480	0.045672	0.110333	-0.161966	-0.652588	-0.357910	-0.309082	-0.380309	-0.171215	0.215628	-0.882924
12750		4.305582	-2.537225	8.125720	0.088481	0.089999	-0.165314	-0.649658	-0.366699	-0.307861	-0.382158	-0.171041	0.213810	-0.882602
12751		4.149577	-2.565706	8.048598	0.148307	0.015135	-0.167912	-0.644043	-0.364502	-0.303955	-0.383735	-0.172007	0.211662	-0.882247
12752		4.031360	-2.440346	8.016780	0.205240	-0.068414	-0.183005	-0.638428	-0.373779	-0.305908	-0.385093	-0.174205	0.209259	-0.881798
12753		4.632123	-2.084908	8.273294	0.237360	-0.095465	-0.187633	-0.644531	-0.371338	-0.300781	-0.386508	-0.176817	0.206635	-0.881277
12754		4.336561	-2.032980	8.164782	0.229881	-0.095468	-0.182610	-0.647461	-0.391113	-0.309570	-0.387711	-0.179402	0.204101	-0.880816
12755		4.584397	-1.947021	8.339467	0.272123	-0.122446	-0.199227	-0.652344	-0.389648	-0.299805	-0.389147	-0.182465	0.201210	-0.880219
12756		4.679945	-1.706413	8.394284	0.239150	-0.117044	-0.181158	-0.637695	-0.398926	-0.295898	-0.390283	-0.185309	0.198677	-0.879697
12757		4.410515	-1.832169	8.297624	0.207984	-0.120849	-0.164261	-0.642334	-0.406250	-0.297363	-0.391486	-0.187962	0.196548	-0.879078
12758		4.257068	-1.911998	8.354310	0.219384	-0.177983	-0.200531	-0.645996	-0.414307	-0.295898	-0.392936	-0.191364	0.194499	-0.878152
12759		4.574325	-1.475904	8.553292	0.143737	-0.213743	-0.213338	-0.643066	-0.405273	-0.285400	-0.394633	-0.194804	0.193429	-0.876870
12760		4.851893	-2.196491	8.188520	0.080833	-0.230439	-0.197800	-0.640137	-0.419922	-0.284912	-0.396101	-0.198098	0.193162	-0.875528
12761		5.063598	-1.876291	8.155423	0.067604	-0.126816	-0.194085	-0.656250	-0.420410	-0.278320	-0.397976	-0.200158	0.192542	-0.874345
12762		4.705048	-1.481014	8.454799	-0.013554	-0.150081	-0.175038	-0.650146	-0.430420	-0.286865	-0.399585	-0.202079	0.192950	-0.873078
12763		3.950003	-1.747576	8.793375	-0.083621	-0.333597	-0.216459	-0.649902	-0.421875	-0.272705	-0.401575	-0.205673	0.194974	-0.870874
12764		3.066163	-2.681458	9.840505	-0.144496	-0.926125	-0.472836	-0.659668	-0.432861	-0.254395	-0.404838	-0.216069	0.199924	-0.865708
12765		3.825700	-0.859605	10.699340	-0.186102	-1.977589	-0.552505	-0.675049	-0.435791	-0.226318	-0.406241	-0.237781	0.210311	-0.856854
12766		3.842221	-0.697741	10.639974	-0.222845	-3.333010	-0.357292	-0.704102	-0.441406	-0.159424	-0.401541	-0.272997	0.228294	-0.843871
12767		5.087429	-1.685917	9.263428	-0.314507	-4.354969	-0.212596	-0.730225	-0.429688	-0.074219	-0.391744	-0.317505	0.252260	-0.825889
12768		10.152792	-2.484885	8.334191	-0.898791	-4.327317	-0.211531	-0.752930	-0.421143	0.011475	-0.383266	-0.357867	0.281370	-0.803660
12769		17.259599	-0.610642	2.624248	-0.558485	-2.193217	-0.301168	-0.762695	-0.417236	0.059326	-0.380941	-0.378065	0.295907	-0.790183
12770		11.210862	4.229948	1.421435	-0.038496	0.563980	-1.288552	-0.753906	-0.440918	0.053467	-0.395906	-0.376956	0.287376	-0.786497
12771		5.753999	-5.715033	-5.598357	-0.441988	0.740900	-1.395411	-0.749756	-0.465088	0.032715	-0.414316	-0.372361	0.281331	-0.781372
12772		-1.269591	-3.390348	-2.708213	-0.241796	-0.318776	0.309599	-0.753418	-0.469482	0.037842	-0.411333	-0.373077	0.286741	-0.780640
12773		-3.690167	1.454990	0.088676	0.210542	-0.984016	0.299784	-0.760254	-0.465088	0.051270	-0.403914	-0.382605	0.291100	-0.778285
12774		24.403567	0.371019	7.457596	0.022790	1.006397	0.108026	-0.746338	-0.464111	0.018311	-0.406430	-0.372455	0.286258	-0.783676
12775		9.303710	-1.061496	10.112060	-0.235090	3.220138	0.705560	-0.740723	-0.449219	-0.041748	-0.411842	-0.336840	0.275231	-0.800733
12776		5.825272	-3.392410	10.163335	-0.242437	2.557950	0.472021	-0.732910	-0.449951	-0.103760	-0.416767	-0.308143	0.266304	-0.812672
12777		6.338673	-3.718436	7.185926	0.047313	1.972674	0.260075	-0.717041	-0.445801	-0.131104	-0.420425	-0.287338	0.256427	-0.821538
12778		6.762650	-3.661189	5.486750	0.248348	2.122733	-0.013332	-0.694092	-0.452393	-0.173340	-0.426368	-0.266732	0.242547	-0.829600
12779		4.911224	-3.634887	8.148683	0.464627	1.995590	-0.386390	-0.683594	-0.470215	-0.211914	-0.434778	-0.249543	0.225698	-0.835318
12780		5.781340	1.633553	8.599702	0.412016	1.597044	-0.107869	-0.663330	-0.470459	-0.236328	-0.439079	-0.235302	0.212308	-0.840695
12781		3.398324	0.231231	10.136401	-0.002539	0.866474	0.369469	-0.658203	-0.472412	-0.253418	-0.437515	-0.225127	0.208613	-0.845210
12782		4.030466	-2.566734	8.762023	-0.085544	0.137803	0.186678	-0.652832	-0.476074	-0.262939	-0.436173	-0.222653	0.209233	-0.846404
12783		5.128599	-1.242917	8.087502	-0.054913	-0.027950	0.003357	-0.650391	-0.468750	-0.254639	-0.436248	-0.222576	0.209917	-0.846217
12784		5.002824	-1.712216	7.980073	-0.066453	-0.109865	0.010195	-0.653564	-0.468750	-0.255371	-0.436065	-0.223283	0.211187	-0.845808
12785		3.974979	-2.295956	8.929389	-0.020280	-0.361482	-0.140909	-0.662598	-0.457520	-0.246338	-0.436682	-0.227298	0.212915	-0.843986
12786		3.247654	-2.067914	10.669031	-0.041882	-1.365321	-0.271219	-0.664551	-0.466553	-0.215088	-0.435988	-0.242092	0.219939	-0.838411
12787		3.581052	-2.041372	10.614353	-0.079691	-2.786192	-0.386962	-0.694336	-0.465332	-0.171387	-0.432378	-0.271696	0.234567	-0.827169
12788		4.862520	-2.423983	9.137032	0.001413	-3.993025	-0.491502	-0.725586	-0.474609	-0.086914	-0.425222	-0.313997	0.254064	-0.809965
12789		7.332428	-3.415539	7.927578	-0.250521	-4.464799	-0.613163	-0.750732	-0.479248	-0.001709	-0.417582	-0.359221	0.277404	-0.787167
12790		15.771334	-0.497811	5.069482	-0.092505	-3.301554	-0.932027	-0.749023	-0.488037	0.072266	-0.415360	-0.394045	0.290997	-0.766502
12791		19.443947	-0.596494	3.211124	-0.532799	0.067094	-0.794494	-0.751221	-0.489990	0.057617	-0.425840	-0.393432	0.291729	-0.760767
12792		5.359988	0.473615	-5.149903	-0.328482	1.470100	-0.905770	-0.732666	-0.514404	0.041748	-0.441362	-0.380855	0.282440	-0.761825
12793		0.149504	-5.777197	-3.179195	-0.953199	0.119226	0.505873	-0.737305	-0.499512	0.021729	-0.441508	-0.372590	0.293207	-0.761759
12794		-4.569730	-2.181972	-1.638902	-0.590302	-0.738512	1.742614	-0.750244	-0.462646	0.030273	-0.424878	-0.369815	0.310921	-0.765535
12795		1.738066	6.463522	2.895608	0.132049	-0.985287	0.673523	-0.759277	-0.454102	0.044434	-0.414000	-0.377233	0.317966	-0.764981
12796		30.817200	1.287038	3.987289	0.460269	2.672725	-0.277182	-0.739746	-0.463135	-0.020020	-0.424909	-0.354894	0.298216	-0.777541
12797		5.523057	-1.024607	14.007715	-0.100460	3.993614	0.723202	-0.730713	-0.459473	-0.106689	-0.432729	-0.312373	0.280823	-0.797688
12798		5.189753	-3.239630	8.588783	0.042263	3.051096	0.571358	-0.704346	-0.457275	-0.167969	-0.437303	-0.279900	0.265897	-0.812232
12799		3.796758	-6.427784	8.800796	0.333935	2.250811	0.083382	-0.683838	-0.449951	-0.208496	-0.442641	-0.258436	0.250357	-0.821341
12800		3.444401	-3.342726	10.340642	0.518085	1.193694	-0.669146	-0.659668	-0.478271	-0.224609	-0.451545	-0.251043	0.236199	-0.822979
12801		7.741527	1.303008	6.663860	0.427208	0.749650	-0.435961	-0.658447	-0.484863	-0.240723	-0.456908	-0.246950	0.226145	-0.824081
12802		7.105784	0.393971	6.586608	0.054003	1.071929	0.263317	-0.647461	-0.485352	-0.254639	-0.457055	-0.235390	0.220213	-0.828974
12803		5.373922	-2.360861	7.821346	0.108204	1.284729	0.279410	-0.635742	-0.483643	-0.284424	-0.457356	-0.221838	0.212502	-0.834540
12804		2.755388	-0.761868	10.195381	0.058367	0.777002	0.114345	-0.623291	-0.487793	-0.296387	-0.458084	-0.213694	0.207717	-0.837465
12805		2.756735	-1.426300	9.847434	-0.166240	-0.349260	0.036726	-0.630859	-0.484619	-0.288330	-0.457264	-0.216238	0.211497	-0.836313
12806		3.979014	-1.752688	9.177242	-0.142224	-1.004551	-0.131069	-0.631836	-0.479736	-0.270508	-0.456351	-0.226188	0.218285	-0.832427
12807		3.911783	-1.952640	10.076462	-0.140667	-1.918375	-0.240475	-0.661133	-0.473145	-0.240234	-0.453907	-0.245867	0.229871	-0.825032
12808		4.163543	-2.259383	9.864989	-0.091366	-3.026715	-0.298050	-0.692871	-0.473145	-0.179443	-0.448256	-0.277164	0.246814	-0.813222
12809		5.083485	-2.675678	8.871032	0.056288	-3.976176	-0.425748	-0.717285	-0.475342	-0.092285	-0.439581	-0.318779	0.266629	-0.796277
12810		7.279355	-2.692209	7.611784	-0.021251	-4.421731	-0.580550	-0.740723	-0.491211	-0.004883	-0.430050	-0.364021	0.288291	-0.774231
12811		14.503528	-1.591523	6.149493	-0.268715	-3.735255	-0.707502	-0.739258	-0.489990	0.058838	-0.424198	-0.400781	0.307308	-0.751660
12812		17.185275	0.917770	0.662305	0.024479	-1.155631	-0.356675	-0.735352	-0.485596	0.090332	-0.422967	-0.413030	0.311282	-0.744049
12813		6.650262	-1.341407	2.055146	0.605462	2.329437	0.261380	-0.744873	-0.485840	0.057129	-0.426314	-0.393305	0.294469	-0.759510
12814		1.115106	-1.204897	-2.929581	-0.703776	1.365332	0.981756	-0.737061	-0.466797	0.031494	-0.425403	-0.372822	0.298558	-0.768700
12815		-1.054301	-1.860795	-4.845369	-0.280905	0.134130	1.046096	-0.753662	-0.449463	0.031250	-0.417163	-0.366046	0.305342	-0.773790
12816		-0.005275	3.122741	-2.021387	0.055596	-0.610400	0.228916	-0.754150	-0.438965	0.037842	-0.412399	-0.371301	0.308997	-0.772388
12817		29.266811	-2.368635	6.792373	0.154835	1.296968	-0.357581	-0.735352	-0.456299	-0.001953	-0.420132	-0.360855	0.299084	-0.777060
12818		8.078252	2.131975	9.159696	0.003219	4.232195	0.614218	-0.716309	-0.449707	-0.090088	-0.429433	-0.316932	0.279184	-0.798247
12819		5.210221	-3.288043	9.344495	-0.091518	3.712817	0.548427	-0.688477	-0.441650	-0.160400	-0.436862	-0.277103	0.262023	-0.814684
12820		3.672575	-5.434045	9.337822	0.214810	2.875903	0.345748	-0.668213	-0.439209	-0.226807	-0.441780	-0.247632	0.245135	-0.826690
12821		2.686967	-3.773018	10.979365	0.396574	1.572336	-0.254769	-0.657715	-0.456787	-0.248047	-0.447959	-0.234251	0.231487	-0.831188
12822		5.266833	0.380259	9.319473	0.233634	0.300545	-0.203295	-0.654541	-0.456055	-0.253906	-0.450292	-0.232962	0.226737	-0.831599
12823		6.560342	-0.514582	7.014600	-0.018378	0.100478	0.178391	-0.644043	-0.459717	-0.251465	-0.448809	-0.231246	0.226830	-0.832853
12824		5.800869	-1.543892	7.575705	-0.100619	0.281650	0.231086	-0.648193	-0.451904	-0.258789	-0.447525	-0.227032	0.226912	-0.834679
12825		5.238063	-1.622136	8.086210	-0.110830	0.213495	0.187999	-0.644531	-0.452637	-0.261719	-0.446516	-0.223589	0.227355	-0.836027
12826		5.148741	-1.928208	7.870303	-0.132466	0.054065	0.217952	-0.640625	-0.441650	-0.268066	-0.444796	-0.221604	0.228993	-0.837025
12827		5.430664	-2.125552	7.594180	-0.085648	0.029524	0.191622	-0.650635	-0.444092	-0.272461	-0.443146	-0.220209	0.230202	-0.837936
12828		5.848539	-1.935232	7.386965	-0.006132	0.161458	0.164878	-0.653076	-0.437256	-0.268066	-0.441934	-0.217947	0.229773	-0.839284
12829		5.854510	-2.156970	7.276014	0.070698	0.392771	0.146271	-0.638184	-0.442871	-0.275146	-0.441365	-0.213733	0.227206	-0.841363
12830		5.443721	-2.469638	7.577551	0.153725	0.567783	0.039551	-0.642090	-0.443115	-0.291260	-0.442177	-0.208431	0.222510	-0.843520
12831		4.953838	-1.598864	8.284668	0.202149	0.551104	-0.047768	-0.625000	-0.446777	-0.292236	-0.443714	-0.203804	0.217158	-0.845237
12832		4.887145	-1.173158	8.481238	0.098150	0.343723	0.022043	-0.622070	-0.440674	-0.306885	-0.444196	-0.200594	0.214221	-0.846499
12833		4.954397	-1.715937	8.235367	-0.009189	0.190478	0.088103	-0.615234	-0.447266	-0.307617	-0.443831	-0.198229	0.213431	-0.847447
12834		4.784172	-2.300367	8.096582	0.015299	0.117662	0.036960	-0.627930	-0.447266	-0.312256	-0.443749	-0.196906	0.212657	-0.847993
12835		4.940534	-1.832484	8.178613	0.051215	0.052703	-0.006582	-0.625488	-0.448242	-0.310059	-0.443867	-0.196586	0.211755	-0.848231
12836		5.121174	-1.609571	8.107419	0.032147	0.034398	0.005907	-0.623291	-0.449707	-0.315430	-0.443851	-0.196321	0.211187	-0.848442
12837		5.055584	-1.780184	8.051131	0.025976	0.055701	0.009492	-0.618164	-0.436768	-0.312256	-0.443868	-0.195786	0.210574	-0.848709
12838		4.985661	-1.766008	8.117019	0.035738	0.067095	0.002777	-0.617432	-0.443115	-0.312744	-0.443961	-0.195202	0.209779	-0.848992
12839		4.979865	-1.771128	8.117670	0.035559	0.063233	0.000113	-0.619629	-0.442627	-0.312500	-0.444073	-0.194665	0.209000	-0.849249
12840		5.039262	-1.780971	8.137514	0.039957	0.063408	-0.006998	-0.613525	-0.441895	-0.312012	-0.444249	-0.194169	0.208156	-0.849478
12841		4.957997	-1.762027	8.140975	0.041073	0.069664	-0.006270	-0.611328	-0.445801	-0.312744	-0.444431	-0.193610	0.207266	-0.849727
12842		4.826438	-1.748938	8.236145	0.042388	0.045736	-0.020790	-0.606934	-0.449219	-0.313477	-0.444702	-0.193351	0.206461	-0.849841
12843		4.921201	-1.687451	8.220641	0.023770	0.005691	-0.010384	-0.612305	-0.443115	-0.315674	-0.444803	-0.193386	0.206100	-0.849868
12844		4.969603	-1.742779	8.142046	0.013371	-0.001696	-0.005083	-0.615723	-0.443359	-0.313477	-0.444853	-0.193428	0.205904	-0.849879
12845		4.969667	-1.781819	8.150086	0.026700	0.004351	-0.012337	-0.617432	-0.443359	-0.315674	-0.444965	-0.193498	0.205515	-0.849899
12846		4.992779	-1.702781	8.150966	0.035115	0.014050	-0.016739	-0.608887	-0.449951	-0.319092	-0.445127	-0.193524	0.204972	-0.849940
12847		4.930857	-1.734500	8.181891	0.034128	0.020848	-0.017887	-0.617920	-0.451660	-0.320557	-0.445321	-0.193474	0.204399	-0.849987
12848		4.945637	-1.632173	8.212249	0.035057	0.013590	-0.021801	-0.619141	-0.452393	-0.315674	-0.445536	-0.193517	0.203847	-0.849997
12849		4.933000	-1.535471	8.218285	0.003145	0.003822	-0.001585	-0.610107	-0.450439	-0.320557	-0.445589	-0.193435	0.203737	-0.850015
12850		4.927849	-1.664743	8.182359	-0.021926	-0.014065	0.015035	-0.613770	-0.442627	-0.317139	-0.445479	-0.193360	0.204033	-0.850018
12851		4.953092	-1.750745	8.160222	-0.014404	-0.015007	0.008241	-0.608643	-0.449707	-0.317627	-0.445421	-0.193355	0.204237	-0.850000
12852		4.955414	-1.770113	8.171940	0.000264	-0.006219	0.002155	-0.621094	-0.453613	-0.314453	-0.445415	-0.193353	0.204223	-0.850007
12853		4.987792	-1.696575	8.164534	0.011824	0.003649	-0.004223	-0.612305	-0.443604	-0.319336	-0.445474	-0.193328	0.204015	-0.850032
12854		4.946925	-1.682223	8.181720	0.014306	0.013865	-0.004576	-0.616699	-0.437988	-0.315674	-0.445557	-0.193208	0.203724	-0.850086
12855		4.920266	-1.721926	8.192274	0.020535	0.015685	-0.007968	-0.607910	-0.451660	-0.318359	-0.445666	-0.193113	0.203348	-0.850141
12856		4.925333	-1.684253	8.178948	0.024729	0.012615	-0.009814	-0.606201	-0.459961	-0.320312	-0.445776	-0.193078	0.202940	-0.850188
12857		4.884653	-1.684200	8.210146	0.023025	0.009024	-0.011108	-0.609131	-0.449707	-0.311035	-0.445895	-0.193075	0.202567	-0.850216
12858		4.916804	-1.637516	8.213901	0.017288	-0.004793	-0.006345	-0.613037	-0.455811	-0.317139	-0.445942	-0.193174	0.202343	-0.850222
12859		4.965691	-1.647799	8.209057	0.009334	-0.005196	-0.004718	-0.612793	-0.451904	-0.315674	-0.445989	-0.193230	0.202211	-0.850216
12860		4.938162	-1.637249	8.206299	0.009554	0.002262	-0.003127	-0.612061	-0.449951	-0.326904	-0.446039	-0.193203	0.202038	-0.850237
12861		4.945811	-1.651454	8.214601	0.006947	0.003218	0.001195	-0.618652	-0.447998	-0.317627	-0.446051	-0.193141	0.201898	-0.850278
12862		4.947845	-1.650855	8.186228	0.005628	0.005058	0.002497	-0.612793	-0.459717	-0.316406	-0.446056	-0.193049	0.201764	-0.850328
12863		4.938011	-1.677636	8.187158	0.010029	0.010805	0.001388	-0.617188	-0.447021	-0.322510	-0.446078	-0.192923	0.201549	-0.850396
12864		4.923758	-1.641136	8.197461	0.015410	0.016466	-0.004261	-0.605713	-0.445312	-0.315186	-0.446161	-0.192781	0.201233	-0.850459
12865		4.940483	-1.620773	8.215210	0.009550	0.021451	0.000857	-0.608154	-0.446289	-0.317871	-0.446216	-0.192541	0.200963	-0.850549
12866		4.927942	-1.617204	8.207225	0.005653	0.017876	0.007817	-0.614746	-0.457520	-0.320068	-0.446198	-0.192299	0.200771	-0.850658
12867		4.908072	-1.646748	8.214950	0.002040	0.017390	0.008123	-0.607910	-0.453125	-0.329834	-0.446184	-0.192041	0.200620	-0.850759
12868		4.907508	-1.637886	8.207850	0.004322	0.021084	0.008255	-0.609375	-0.443848	-0.317139	-0.446173	-0.191757	0.200426	-0.850875
12869		4.876406	-1.638022	8.240082	-0.001942	0.016047	0.008311	-0.611816	-0.446777	-0.315430	-0.446162	-0.191491	0.200326	-0.850964
12870		4.872895	-1.666292	8.235564	-0.001116	0.011280	0.008475	-0.606689	-0.453857	-0.318848	-0.446135	-0.191280	0.200244	-0.851045
12871		4.866718	-1.645731	8.235957	-0.000947	0.008650	0.003022	-0.605957	-0.459229	-0.314209	-0.446161	-0.191112	0.200161	-0.851089
12872		4.876887	-1.636241	8.221253	-0.003126	0.003051	0.005295	-0.615967	-0.450195	-0.324219	-0.446153	-0.190985	0.200138	-0.851127
12873		4.835923	-1.706284	8.218428	0.002596	0.001011	0.001279	-0.612305	-0.449707	-0.321289	-0.446169	-0.190922	0.200058	-0.851151
12874		4.877092	-1.626395	8.241105	0.003317	-0.001850	-0.000964	-0.613281	-0.450684	-0.326904	-0.446200	-0.190899	0.199980	-0.851158
12875		4.876490	-1.635287	8.221678	0.003983	0.001348	-0.000191	-0.609619	-0.449463	-0.320557	-0.446230	-0.190843	0.199881	-0.851179
12876		4.861268	-1.654401	8.246660	0.000741	-0.001932	-0.000148	-0.608154	-0.450195	-0.323486	-0.446258	-0.190805	0.199832	-0.851184
12877		4.861834	-1.624207	8.235778	-0.003947	-0.005434	0.002770	-0.609131	-0.455078	-0.320801	-0.446259	-0.190770	0.199861	-0.851185
12878		4.878756	-1.654063	8.233638	-0.006650	-0.007581	0.005162	-0.615967	-0.446777	-0.322266	-0.446235	-0.190737	0.199934	-0.851188
12879		4.875967	-1.661650	8.225448	-0.007827	-0.008688	0.005367	-0.604980	-0.458496	-0.323975	-0.446206	-0.190709	0.200029	-0.851187
12880		4.873539	-1.656127	8.220144	-0.009063	-0.009681	0.006978	-0.605713	-0.453369	-0.317383	-0.446166	-0.190680	0.200144	-0.851187
12881		4.867004	-1.673450	8.221430	-0.008475	-0.007299	0.007063	-0.605469	-0.453369	-0.323486	-0.446126	-0.190629	0.200239	-0.851197
12882		4.857634	-1.658969	8.241441	-0.004960	-0.012212	0.003597	-0.611816	-0.452393	-0.325684	-0.446104	-0.190658	0.200319	-0.851184
12883		4.867662	-1.673230	8.230777	-0.008771	-0.013285	0.006024	-0.604248	-0.460938	-0.316650	-0.446061	-0.190672	0.200451	-0.851172
12884		4.854240	-1.674247	8.223739	-0.007742	-0.015170	0.005297	-0.608154	-0.450684	-0.328125	-0.446019	-0.190713	0.200576	-0.851155
12885		4.850304	-1.680798	8.243695	-0.003721	-0.018518	0.001224	-0.607178	-0.450928	-0.322998	-0.446004	-0.190822	0.200674	-0.851115
12886		4.886701	-1.640450	8.243719	-0.004966	-0.021799	0.001597	-0.609863	-0.451416	-0.333252	-0.445977	-0.190958	0.200802	-0.851069
12887		4.894848	-1.650399	8.244726	-0.010254	-0.019007	0.004328	-0.609863	-0.450195	-0.316406	-0.445943	-0.191028	0.200981	-0.851028
12888		4.900865	-1.706876	8.200494	-0.006802	-0.020152	0.002639	-0.611328	-0.451904	-0.329346	-0.445911	-0.191135	0.201118	-0.850989
12889		4.905921	-1.628115	8.216332	-0.008405	-0.018352	0.004515	-0.610840	-0.452637	-0.318848	-0.445872	-0.191208	0.201272	-0.850957
12890		4.909849	-1.662001	8.223732	-0.015906	-0.020717	0.006564	-0.611084	-0.454834	-0.314941	-0.445820	-0.191260	0.201519	-0.850914
12891		4.916740	-1.670210	8.208219	-0.013745	-0.015445	0.008654	-0.612305	-0.450928	-0.320312	-0.445753	-0.191263	0.201716	-0.850902
12892		4.888192	-1.692166	8.225855	-0.012129	-0.014951	0.008012	-0.607178	-0.442871	-0.320801	-0.445691	-0.191271	0.201896	-0.850889
12893		4.894372	-1.685950	8.214185	-0.009062	-0.011948	0.005733	-0.612061	-0.452637	-0.317383	-0.445655	-0.191269	0.202025	-0.850878
12894		4.896424	-1.658233	8.202010	-0.012210	-0.012112	0.007703	-0.601562	-0.448975	-0.313965	-0.445603	-0.191248	0.202186	-0.850872
12895		4.879487	-1.704473	8.231332	-0.015590	-0.012432	0.008843	-0.606445	-0.451660	-0.323730	-0.445549	-0.191207	0.202388	-0.850861
12896		4.896369	-1.698042	8.184548	-0.011732	-0.015118	0.004617	-0.612549	-0.454834	-0.318359	-0.445527	-0.191227	0.202560	-0.850827
12897		4.911550	-1.697620	8.200117	-0.005448	-0.011463	0.005414	-0.609131	-0.448975	-0.320068	-0.445486	-0.191242	0.202640	-0.850827
12898		4.906277	-1.704802	8.220807	-0.008238	-0.009408	0.006647	-0.607422	-0.448486	-0.328369	-0.445445	-0.191215	0.202746	-0.850829
12899		4.887904	-1.697911	8.210550	-0.008978	-0.011123	0.006415	-0.601562	-0.451416	-0.311035	-0.445409	-0.191202	0.202876	-0.850819
12900		4.925850	-1.693703	8.209068	-0.005982	-0.010299	0.004302	-0.614502	-0.441895	-0.320557	-0.445385	-0.191205	0.202949	-0.850814
12901		4.935494	-1.667950	8.208206	-0.009095	-0.005892	0.008761	-0.618408	-0.447510	-0.320068	-0.445327	-0.191132	0.203052	-0.850837
12902		4.927702	-1.712380	8.203592	-0.008204	-0.004833	0.009130	-0.616699	-0.451660	-0.317871	-0.445265	-0.191052	0.203137	-0.850867
12903		4.911346	-1.726631	8.195116	-0.004412	0.001240	0.006233	-0.604736	-0.452148	-0.317139	-0.445241	-0.190936	0.203136	-0.850905
12904		4.884340	-1.683122	8.218169	-0.000499	0.000398	0.006198	-0.607422	-0.447510	-0.321777	-0.445215	-0.190850	0.203100	-0.850947
12905		4.900017	-1.686134	8.222973	-0.004942	0.000716	0.010333	-0.615967	-0.449951	-0.327881	-0.445155	-0.190724	0.203126	-0.851000
12906		4.879282	-1.736705	8.217835	-0.007932	-0.003424	0.007699	-0.607910	-0.448975	-0.324951	-0.445119	-0.190632	0.203204	-0.851021
12907		4.895601	-1.723180	8.208558	-0.004963	-0.005214	0.008698	-0.609619	-0.459473	-0.315674	-0.445064	-0.190573	0.203261	-0.851049
12908		4.900385	-1.732806	8.211547	-0.001531	-0.005007	0.006149	-0.610352	-0.454834	-0.320312	-0.445025	-0.190540	0.203258	-0.851078
12909		4.917543	-1.721736	8.218893	-0.001342	-0.004415	0.004029	-0.613525	-0.448975	-0.327393	-0.445011	-0.190506	0.203252	-0.851094
12910		4.906223	-1.715581	8.220505	0.000155	-0.002345	0.005346	-0.608887	-0.444336	-0.318359	-0.444984	-0.190453	0.203234	-0.851124
12911		4.910105	-1.693552	8.214006	0.000544	0.000797	0.006706	-0.609863	-0.448730	-0.319824	-0.444944	-0.190368	0.203189	-0.851175
12912		4.908729	-1.721624	8.207968	-0.001306	0.003475	0.011262	-0.607666	-0.450439	-0.319580	-0.444869	-0.190232	0.203159	-0.851252
12913		4.907363	-1.722851	8.208527	0.001390	0.005611	0.008873	-0.610596	-0.452148	-0.325928	-0.444822	-0.190094	0.203081	-0.851326
12914		4.904194	-1.701987	8.180021	0.005506	0.012647	0.007500	-0.608154	-0.449707	-0.322266	-0.444801	-0.189906	0.202924	-0.851416
12915		4.909350	-1.708073	8.209516	0.008029	0.021485	0.008009	-0.616943	-0.443604	-0.318359	-0.444789	-0.189638	0.202689	-0.851539
12916		4.841543	-1.739919	8.235998	0.008626	0.018855	0.008563	-0.610840	-0.442627	-0.312988	-0.444745	-0.189402	0.202459	-0.851669
12917		4.881584	-1.701157	8.222486	0.006398	0.013711	0.007866	-0.607178	-0.449219	-0.325195	-0.444701	-0.189212	0.202274	-0.851778
12918		4.882523	-1.709147	8.228105	0.004879	0.012680	0.010049	-0.608398	-0.447266	-0.324463	-0.444656	-0.189013	0.202130	-0.851880
12919		4.874478	-1.741227	8.216851	0.007728	0.014157	0.007799	-0.608154	-0.451904	-0.324219	-0.444627	-0.188821	0.201943	-0.851981
12920		4.815654	-1.696845	8.219619	0.008461	0.017236	0.007175	-0.611084	-0.443359	-0.325928	-0.444615	-0.188602	0.201724	-0.852088
12921		4.781459	-1.744722	8.251674	0.006152	0.007948	0.001050	-0.607910	-0.443359	-0.327148	-0.444641	-0.188484	0.201576	-0.852136
12922		4.848300	-1.705762	8.235746	0.005091	0.000252	-0.000234	-0.613281	-0.447510	-0.325439	-0.444668	-0.188445	0.201481	-0.852153
12923		4.848155	-1.705014	8.235986	0.003505	0.000694	0.002500	-0.610840	-0.441406	-0.324951	-0.444665	-0.188387	0.201398	-0.852186
12924		4.856096	-1.707417	8.246956	0.001730	0.002228	0.002145	-0.609863	-0.439209	-0.326660	-0.444672	-0.188303	0.201331	-0.852218
12925		4.850767	-1.725771	8.237460	0.005949	0.003711	0.002781	-0.610107	-0.448486	-0.320801	-0.444666	-0.188225	0.201216	-0.852265
12926		4.834293	-1.713555	8.253084	0.007491	0.007031	0.001837	-0.606689	-0.443359	-0.328369	-0.444677	-0.188125	0.201045	-0.852322
12927		4.797399	-1.718216	8.253698	0.008557	0.001379	-0.000683	-0.610107	-0.454102	-0.320801	-0.444707	-0.188093	0.200908	-0.852345
12928		4.857658	-1.679921	8.242963	0.006708	-0.004272	-0.000404	-0.606201	-0.448730	-0.324219	-0.444719	-0.188115	0.200797	-0.852361
12929		4.842159	-1.694505	8.251452	0.005558	0.000565	0.001425	-0.612061	-0.447021	-0.317383	-0.444732	-0.188071	0.200689	-0.852389
12930		4.834153	-1.694529	8.257601	0.005370	0.001656	-0.001664	-0.610352	-0.449463	-0.336182	-0.444760	-0.188029	0.200555	-0.852415
12931		4.826177	-1.664081	8.253444	0.003272	0.000539	0.001670	-0.608887	-0.446777	-0.326416	-0.444785	-0.187967	0.200496	-0.852430
12932		4.813350	-1.711103	8.242901	-0.001364	-0.003049	0.003179	-0.607910	-0.449707	-0.320312	-0.444782	-0.187918	0.200491	-0.852443
12933		4.806992	-1.686112	8.254258	-0.002331	-0.006283	0.002975	-0.604736	-0.447998	-0.327393	-0.444772	-0.187903	0.200498	-0.852450
12934		4.820504	-1.724539	8.261330	-0.002798	-0.011605	0.001785	-0.604736	-0.450439	-0.327637	-0.444776	-0.187940	0.200555	-0.852427
12935		4.846525	-1.677682	8.235281	-0.002416	-0.012106	0.002754	-0.614746	-0.446289	-0.327637	-0.444770	-0.187981	0.200612	-0.852407
12936		4.841124	-1.710375	8.249738	-0.002649	-0.012261	0.001924	-0.611816	-0.450684	-0.323975	-0.444750	-0.188028	0.200670	-0.852393
12937		4.855056	-1.717764	8.246374	-0.000819	-0.008899	0.000404	-0.618408	-0.445801	-0.318115	-0.444756	-0.188055	0.200674	-0.852383
12938		4.849082	-1.692420	8.257602	-0.000693	-0.003507	0.003573	-0.604736	-0.448730	-0.322021	-0.444714	-0.188023	0.200642	-0.852420
12939		4.848971	-1.702312	8.237517	0.001423	-0.005111	0.001947	-0.616211	-0.450195	-0.328125	-0.444718	-0.188017	0.200607	-0.852428
12940		4.861464	-1.695783	8.238378	0.001604	0.000167	0.003712	-0.614502	-0.449219	-0.318604	-0.444703	-0.187951	0.200551	-0.852463
12941		4.829439	-1.696957	8.245225	-0.000458	0.001658	0.003934	-0.609131	-0.452881	-0.323975	-0.444680	-0.187864	0.200488	-0.852509
12942		4.865469	-1.664833	8.251767	-0.002851	0.001860	0.006989	-0.610596	-0.453125	-0.316406	-0.444657	-0.187748	0.200468	-0.852551
12943		4.827073	-1.695925	8.229232	-0.003287	0.005806	0.012162	-0.610840	-0.447998	-0.330811	-0.444572	-0.187581	0.200422	-0.852643
12944		4.770951	-1.746373	8.260477	-0.004097	-0.002774	0.008212	-0.614014	-0.447754	-0.334473	-0.444529	-0.187499	0.200467	-0.852673
12945		4.831272	-1.711572	8.248931	-0.004416	-0.003744	0.006692	-0.613770	-0.439697	-0.325195	-0.444499	-0.187428	0.200525	-0.852690
12946		4.816332	-1.715128	8.259904	-0.001354	-0.004406	0.004032	-0.608154	-0.456787	-0.319824	-0.444461	-0.187395	0.200532	-0.852716
12947		4.808643	-1.713338	8.248665	-0.001174	-0.004136	0.006265	-0.615967	-0.447754	-0.327881	-0.444427	-0.187357	0.200507	-0.852748
12948		4.837110	-1.691600	8.240886	0.001676	-0.002667	0.004015	-0.609863	-0.452148	-0.319580	-0.444397	-0.187322	0.200468	-0.852780
12949		4.826655	-1.693052	8.275587	-0.002723	-0.001085	0.005887	-0.608643	-0.450684	-0.322998	-0.444367	-0.187246	0.200446	-0.852818
12950		4.841754	-1.675900	8.250265	-0.009176	-0.001045	0.014040	-0.617920	-0.448242	-0.328369	-0.444273	-0.187109	0.200524	-0.852879
12951		4.829134	-1.717036	8.258846	-0.011228	-0.000910	0.015115	-0.605225	-0.446777	-0.325195	-0.444156	-0.186956	0.200638	-0.852947
12952		4.821115	-1.739537	8.277415	-0.008900	-0.001316	0.017814	-0.605225	-0.451172	-0.327393	-0.444029	-0.186810	0.200735	-0.853022
12953		4.807868	-1.745811	8.259417	-0.007707	0.000102	0.013257	-0.610596	-0.443848	-0.324463	-0.443962	-0.186665	0.200801	-0.853072
12954		4.795903	-1.727922	8.264361	-0.003412	0.000421	0.008989	-0.605957	-0.447510	-0.328125	-0.443901	-0.186557	0.200806	-0.853127
12955		4.822603	-1.734023	8.250800	-0.001516	0.002304	0.006921	-0.610840	-0.446045	-0.320068	-0.443887	-0.186438	0.200785	-0.853165
12956		4.810218	-1.714563	8.256327	0.000326	0.004302	0.006258	-0.608643	-0.443604	-0.334473	-0.443849	-0.186322	0.200704	-0.853229
12957		4.821172	-1.725590	8.271520	0.003786	0.006780	0.004954	-0.609375	-0.442871	-0.324951	-0.443855	-0.186184	0.200620	-0.853276
12958		4.811433	-1.709332	8.265022	0.003204	0.008056	0.005250	-0.607422	-0.444092	-0.325195	-0.443837	-0.186040	0.200504	-0.853344
12959		4.802124	-1.710819	8.271631	-0.000577	0.004608	0.005033	-0.614990	-0.440918	-0.322510	-0.443830	-0.185911	0.200448	-0.853389
12960		4.771556	-1.756462	8.256908	0.003272	0.005223	0.005552	-0.606689	-0.445312	-0.330322	-0.443776	-0.185803	0.200338	-0.853466
12961		4.771015	-1.742473	8.260668	0.006688	0.001763	0.002622	-0.605713	-0.453857	-0.323730	-0.443786	-0.185745	0.200229	-0.853499
12962		4.755233	-1.726526	8.259119	0.003302	-0.001872	-0.000976	-0.602539	-0.440186	-0.332275	-0.443838	-0.185725	0.200133	-0.853499
12963		4.772478	-1.714208	8.266774	0.001559	-0.005772	0.002084	-0.607666	-0.443359	-0.332275	-0.443852	-0.185715	0.200136	-0.853494
12964		4.777849	-1.722010	8.269807	0.002108	-0.007977	-0.000305	-0.605957	-0.446289	-0.320557	-0.443874	-0.185741	0.200131	-0.853478
12965		4.815202	-1.715854	8.269245	-0.000586	-0.005091	0.001615	-0.607422	-0.452148	-0.337402	-0.443876	-0.185729	0.200101	-0.853486
12966		4.775962	-1.728104	8.261336	-0.003578	-0.007255	0.004577	-0.610352	-0.448730	-0.327637	-0.443893	-0.185699	0.200168	-0.853468
12967		4.781287	-1.736959	8.264173	-0.000144	-0.007067	0.002032	-0.607666	-0.447510	-0.333984	-0.443892	-0.185704	0.200162	-0.853469
12968		4.779692	-1.702227	8.265636	-0.000692	-0.009553	0.000537	-0.613525	-0.445068	-0.335693	-0.443920	-0.185728	0.200197	-0.853441
12969		4.805932	-1.720452	8.276701	-0.002822	-0.011590	0.001775	-0.610352	-0.450195	-0.326904	-0.443913	-0.185760	0.200273	-0.853420
12970		4.799705	-1.749073	8.274805	-0.001205	-0.011109	0.001135	-0.605957	-0.450439	-0.334229	-0.443917	-0.185806	0.200294	-0.853403
12971		4.809910	-1.735064	8.270808	-0.002742	-0.009415	0.001612	-0.614990	-0.442383	-0.324707	-0.443954	-0.185812	0.200350	-0.853369
12972		4.787415	-1.717917	8.257362	-0.000430	-0.007106	0.002605	-0.608887	-0.449951	-0.330078	-0.443908	-0.185822	0.200344	-0.853392
12973		4.805321	-1.723542	8.277940	0.000892	-0.005309	0.001686	-0.617188	-0.449463	-0.325195	-0.443927	-0.185811	0.200323	-0.853389
12974		4.802717	-1.702350	8.276641	-0.001680	-0.005370	0.002508	-0.608154	-0.442871	-0.328613	-0.443906	-0.185796	0.200310	-0.853407
12975		4.831582	-1.681982	8.268380	-0.009932	-0.004708	0.008218	-0.612549	-0.442871	-0.326660	-0.443860	-0.185704	0.200423	-0.853424
12976		4.797272	-1.740273	8.289958	-0.021043	-0.014883	0.008403	-0.611084	-0.447021	-0.329590	-0.443794	-0.185664	0.200700	-0.853402
12977		4.814832	-1.726244	8.262550	-0.022646	-0.010354	0.008579	-0.615723	-0.443604	-0.330811	-0.443766	-0.185561	0.200974	-0.853375
12978		4.772404	-1.752379	8.262937	-0.020647	-0.010373	0.008903	-0.606445	-0.444824	-0.330811	-0.443707	-0.185471	0.201233	-0.853364
12979		4.770213	-1.762401	8.253784	-0.016665	-0.013745	0.004813	-0.608398	-0.447998	-0.328613	-0.443711	-0.185442	0.201463	-0.853313
12980		4.780297	-1.777827	8.242572	-0.009091	-0.014265	0.003055	-0.612549	-0.448975	-0.317383	-0.443714	-0.185471	0.201596	-0.853275
12981		4.806745	-1.749194	8.229691	-0.002552	-0.010497	0.004680	-0.612793	-0.445801	-0.332764	-0.443658	-0.185510	0.201596	-0.853295
12982		4.796954	-1.760633	8.243828	-0.002471	-0.008324	0.004520	-0.613770	-0.445801	-0.334717	-0.443633	-0.185504	0.201645	-0.853298
12983		4.780006	-1.728904	8.256831	-0.000456	-0.011066	0.006545	-0.611328	-0.443359	-0.324951	-0.443576	-0.185532	0.201698	-0.853309
12984		4.762762	-1.724390	8.263170	-0.005055	-0.013383	0.005799	-0.611816	-0.450928	-0.320557	-0.443511	-0.185573	0.201781	-0.853314
12985		4.781101	-1.751041	8.242656	-0.007979	-0.024410	0.006010	-0.611084	-0.442871	-0.331299	-0.443435	-0.185722	0.201928	-0.853286
12986		4.806881	-1.767155	8.264175	-0.009772	-0.026508	0.005266	-0.602783	-0.446045	-0.322266	-0.443370	-0.185868	0.202159	-0.853233
12987		4.824047	-1.776348	8.258420	-0.006858	-0.027875	0.003308	-0.605225	-0.440918	-0.324707	-0.443338	-0.186056	0.202331	-0.853169
12988		4.837630	-1.763502	8.252203	-0.007635	-0.025505	0.000525	-0.613770	-0.442139	-0.328613	-0.443323	-0.186220	0.202508	-0.853099
12989		4.847038	-1.759748	8.255821	-0.007031	-0.023134	0.000619	-0.611328	-0.446533	-0.321045	-0.443294	-0.186361	0.202672	-0.853044
12990		4.843748	-1.762532	8.258711	-0.007667	-0.020387	0.001474	-0.607422	-0.444824	-0.326660	-0.443272	-0.186478	0.202796	-0.853001
12991		4.842941	-1.752290	8.235905	-0.007348	-0.018060	0.002144	-0.619385	-0.450928	-0.327637	-0.443272	-0.186557	0.202934	-0.852951
12992		4.826480	-1.779473	8.251675	-0.009701	-0.014209	0.005604	-0.612305	-0.447021	-0.324951	-0.443228	-0.186581	0.203067	-0.852936
12993		4.849025	-1.773788	8.244862	-0.004143	-0.013352	0.002658	-0.614502	-0.438721	-0.329346	-0.443213	-0.186633	0.203132	-0.852917
12994		4.851317	-1.774896	8.243274	-0.004072	-0.009824	0.001655	-0.616455	-0.452637	-0.323730	-0.443192	-0.186644	0.203204	-0.852909
12995		4.844705	-1.759390	8.234911	-0.001638	-0.004114	0.000243	-0.611572	-0.445312	-0.319824	-0.443220	-0.186624	0.203168	-0.852907
12996		4.822227	-1.763535	8.251942	-0.002968	-0.003513	0.003811	-0.617920	-0.437988	-0.319580	-0.443199	-0.186583	0.203151	-0.852931
12997		4.809685	-1.780895	8.230560	-0.004708	-0.006045	0.006013	-0.609131	-0.445557	-0.328857	-0.443100	-0.186558	0.203179	-0.852981
12998		4.811251	-1.768491	8.232864	-0.000811	-0.006590	0.001614	-0.610596	-0.438232	-0.320557	-0.443126	-0.186549	0.203190	-0.852967
12999		4.785339	-1.777616	8.242520	-0.001358	-0.010423	0.000958	-0.610840	-0.451660	-0.326904	-0.443096	-0.186595	0.203204	-0.852969
13000		4.821474	-1.741462	8.259846	-0.005041	-0.014395	0.002283	-0.611572	-0.443115	-0.326416	-0.443111	-0.186651	0.203284	-0.852930
13001		4.830030	-1.791754	8.222485	-0.008008	-0.018939	0.002593	-0.605469	-0.443604	-0.325439	-0.443087	-0.186737	0.203435	-0.852888
13002		4.834245	-1.779637	8.223173	-0.003260	-0.018322	-0.000036	-0.607910	-0.437500	-0.321289	-0.443108	-0.186845	0.203528	-0.852831
13003		4.842492	-1.761831	8.231063	-0.004369	-0.014852	0.002668	-0.610596	-0.441895	-0.332031	-0.443068	-0.186912	0.203611	-0.852817
13004		4.822643	-1.766505	8.246515	-0.005065	-0.018024	0.001875	-0.610596	-0.445312	-0.324463	-0.443066	-0.186994	0.203752	-0.852767
13005		4.841513	-1.778781	8.229019	-0.004817	-0.020258	0.000047	-0.610840	-0.441895	-0.316650	-0.443068	-0.187121	0.203861	-0.852712
13006		4.862113	-1.768251	8.234259	-0.006632	-0.018606	0.001114	-0.620117	-0.445312	-0.322510	-0.443031	-0.187231	0.203956	-0.852684
13007		4.840680	-1.795981	8.226833	-0.005277	-0.014536	0.001448	-0.609375	-0.450439	-0.322998	-0.442986	-0.187303	0.204026	-0.852675
13008		4.841295	-1.779006	8.240662	-0.000934	-0.018406	-0.001709	-0.606689	-0.442871	-0.323486	-0.443024	-0.187438	0.204066	-0.852616
13009		4.868334	-1.762547	8.224022	-0.003369	-0.015372	0.001070	-0.617676	-0.444336	-0.321533	-0.443033	-0.187514	0.204143	-0.852576
13010		4.883293	-1.787812	8.233091	-0.005005	-0.013133	0.000026	-0.613525	-0.442383	-0.326660	-0.443014	-0.187575	0.204200	-0.852559
13011		4.861420	-1.801439	8.229557	-0.001207	-0.011067	0.001080	-0.610596	-0.441406	-0.321533	-0.443007	-0.187616	0.204239	-0.852544
13012		4.855477	-1.785190	8.221005	0.001869	-0.009460	-0.000349	-0.611816	-0.446777	-0.324219	-0.443007	-0.187669	0.204215	-0.852538
13013		4.841289	-1.783022	8.215323	0.001911	-0.009570	-0.001753	-0.605469	-0.450439	-0.329590	-0.443043	-0.187723	0.204189	-0.852514
13014		4.832542	-1.779299	8.232887	0.002100	-0.010337	-0.003023	-0.616455	-0.443115	-0.322754	-0.443151	-0.187773	0.204186	-0.852447
13015		4.858526	-1.761779	8.217043	0.001455	-0.012586	-0.001720	-0.618896	-0.449219	-0.318359	-0.443141	-0.187863	0.204179	-0.852435
13016		4.834056	-1.757190	8.229570	-0.003151	-0.012501	0.000206	-0.614014	-0.443115	-0.327148	-0.443120	-0.187936	0.204192	-0.852426
13017		4.872241	-1.765767	8.224219	-0.006132	-0.013296	0.002330	-0.616455	-0.446533	-0.327393	-0.443107	-0.187968	0.204302	-0.852399
13018		4.862525	-1.773896	8.221471	-0.007381	-0.011562	0.002251	-0.614502	-0.443848	-0.320312	-0.443106	-0.187979	0.204407	-0.852372
13019		4.848702	-1.774230	8.215054	-0.008844	-0.012691	0.003033	-0.616943	-0.440186	-0.321777	-0.443074	-0.188005	0.204512	-0.852358
13020		4.863890	-1.787275	8.227183	-0.007877	-0.014464	0.003685	-0.619629	-0.445557	-0.317871	-0.443007	-0.188051	0.204629	-0.852355
13021		4.866200	-1.802748	8.221882	-0.008266	-0.013959	0.002722	-0.607422	-0.437012	-0.319580	-0.442947	-0.188105	0.204714	-0.852354
13022		4.840692	-1.778534	8.204358	-0.005594	-0.014448	0.003419	-0.614258	-0.441895	-0.324463	-0.442913	-0.188157	0.204814	-0.852336
13023		4.872806	-1.779028	8.224273	-0.004077	-0.014782	0.002075	-0.621582	-0.439697	-0.319336	-0.442886	-0.188222	0.204901	-0.852315
13024		4.875097	-1.793479	8.219195	-0.003325	-0.013078	0.002310	-0.611572	-0.452148	-0.316162	-0.442795	-0.188292	0.204944	-0.852336
13025		4.872770	-1.799687	8.210854	-0.003407	-0.008903	0.001184	-0.617432	-0.445801	-0.323730	-0.442809	-0.188323	0.204933	-0.852325
13026		4.870119	-1.792081	8.206290	-0.000293	-0.005025	0.001007	-0.615723	-0.441162	-0.329590	-0.442803	-0.188315	0.204909	-0.852335
13027		4.859837	-1.772212	8.211144	-0.002614	-0.004927	0.002675	-0.623047	-0.444580	-0.323242	-0.442802	-0.188269	0.204953	-0.852335
13028		4.860242	-1.799927	8.203711	-0.003017	-0.009405	0.002144	-0.613281	-0.440430	-0.317871	-0.442741	-0.188298	0.204977	-0.852355
13029		4.871526	-1.776956	8.219344	-0.004251	-0.009027	0.002912	-0.608398	-0.441406	-0.321045	-0.442701	-0.188312	0.205012	-0.852364
13030		4.883054	-1.807884	8.192935	-0.002922	-0.008596	0.002838	-0.617920	-0.440430	-0.318115	-0.442706	-0.188315	0.205049	-0.852352
13031		4.877818	-1.782825	8.204314	0.000112	-0.006883	0.002808	-0.621582	-0.447754	-0.318604	-0.442636	-0.188336	0.205020	-0.852391
13032		4.873818	-1.801854	8.193582	0.000044	-0.004063	0.002527	-0.617676	-0.444580	-0.320557	-0.442572	-0.188337	0.204955	-0.852439
13033		4.850207	-1.801305	8.194852	0.003011	0.000468	0.002216	-0.615723	-0.440918	-0.318848	-0.442540	-0.188295	0.204855	-0.852489
13034		4.879652	-1.799819	8.216748	0.004240	-0.002292	-0.001212	-0.609131	-0.437988	-0.314453	-0.442533	-0.188295	0.204753	-0.852517
13035		4.868895	-1.778520	8.222217	0.004445	-0.002030	0.001019	-0.610352	-0.444092	-0.316895	-0.442524	-0.188288	0.204649	-0.852549
13036		4.872655	-1.768824	8.212658	0.001682	0.000037	0.002290	-0.617920	-0.443359	-0.319580	-0.442524	-0.188241	0.204561	-0.852580
13037		4.847885	-1.764876	8.197548	-0.003148	-0.001381	0.004242	-0.612061	-0.448730	-0.322510	-0.442468	-0.188182	0.204539	-0.852627
13038		4.842053	-1.802066	8.229018	-0.005152	-0.010069	0.002544	-0.618408	-0.435303	-0.318115	-0.442473	-0.188197	0.204592	-0.852608
13039		4.836128	-1.800762	8.216670	-0.006198	-0.016791	0.003311	-0.620361	-0.437012	-0.319824	-0.442373	-0.188284	0.204699	-0.852616
13040		4.858935	-1.807766	8.206086	-0.003412	-0.017613	-0.000208	-0.617920	-0.441406	-0.319092	-0.442299	-0.188403	0.204774	-0.852610
13041		4.879013	-1.779079	8.198277	-0.001358	-0.019106	-0.000463	-0.622070	-0.437988	-0.322998	-0.442240	-0.188554	0.204824	-0.852595
13042		4.833809	-1.847941	8.199335	0.007524	-0.018996	-0.008112	-0.617920	-0.440186	-0.312256	-0.442226	-0.188762	0.204784	-0.852566
13043		4.880797	-1.765201	8.220310	0.020064	-0.013573	-0.017940	-0.620850	-0.434814	-0.323242	-0.442286	-0.189033	0.204505	-0.852541
13044		4.889301	-1.740421	8.229578	0.018795	-0.013081	-0.015769	-0.615479	-0.449219	-0.322021	-0.442357	-0.189250	0.204313	-0.852503
13045		4.890315	-1.772284	8.202459	0.008810	-0.014496	-0.010715	-0.616455	-0.441895	-0.322510	-0.442430	-0.189428	0.204208	-0.852451
13046		4.870655	-1.773078	8.219009	0.006552	-0.013478	-0.006943	-0.609863	-0.446533	-0.325195	-0.442467	-0.189561	0.204156	-0.852414
13047		4.896888	-1.767722	8.199522	0.004586	-0.016153	-0.005565	-0.615723	-0.443359	-0.315430	-0.442558	-0.189694	0.204157	-0.852337
13048		4.920534	-1.776404	8.205830	0.001132	-0.014870	-0.002425	-0.613770	-0.438721	-0.326904	-0.442529	-0.189822	0.204144	-0.852327
13049		4.918109	-1.750637	8.187779	0.000666	-0.005436	0.000811	-0.623291	-0.439697	-0.329834	-0.442566	-0.189791	0.204170	-0.852308
13050		4.903632	-1.753646	8.199118	-0.003775	-0.003626	0.005552	-0.612061	-0.442383	-0.314209	-0.442495	-0.189716	0.204237	-0.852346
13051		4.895453	-1.769636	8.201634	-0.002999	0.001697	0.006200	-0.614014	-0.443115	-0.310547	-0.442454	-0.189617	0.204201	-0.852398
13052		4.872600	-1.761093	8.222736	-0.003750	-0.000003	0.005966	-0.615479	-0.445801	-0.322266	-0.442377	-0.189550	0.204156	-0.852464
13053		4.887327	-1.773987	8.207219	-0.006110	-0.002175	0.006385	-0.614502	-0.438232	-0.317139	-0.442337	-0.189463	0.204197	-0.852493
13054		4.883419	-1.768033	8.203049	-0.006669	-0.002259	0.007539	-0.610596	-0.443604	-0.319824	-0.442272	-0.189373	0.204246	-0.852535
13055		4.891462	-1.786370	8.209861	-0.004195	-0.000630	0.008655	-0.608643	-0.448730	-0.324219	-0.442242	-0.189269	0.204267	-0.852569
13056		4.869838	-1.791389	8.198789	-0.000165	0.005528	0.006593	-0.610840	-0.448486	-0.331543	-0.442278	-0.189119	0.204215	-0.852596
13057		4.870697	-1.769027	8.222160	0.001303	0.002922	0.003987	-0.610596	-0.440186	-0.315186	-0.442346	-0.188993	0.204189	-0.852595
13058		4.853628	-1.767999	8.218062	-0.002210	0.003288	0.005030	-0.606934	-0.450928	-0.320801	-0.442329	-0.188880	0.204140	-0.852641
13059		4.872824	-1.791595	8.223187	0.003260	0.000621	0.003036	-0.617920	-0.447266	-0.318115	-0.442381	-0.188822	0.204048	-0.852649
13060		4.879065	-1.786069	8.201140	0.004292	0.002363	0.002694	-0.610352	-0.435547	-0.327393	-0.442326	-0.188777	0.203910	-0.852720
13061		4.878037	-1.784939	8.201997	0.008377	0.007057	0.000069	-0.609863	-0.438965	-0.320312	-0.442399	-0.188651	0.203790	-0.852739
13062		4.881635	-1.781528	8.226816	0.012260	0.011277	0.000961	-0.609863	-0.440918	-0.326416	-0.442433	-0.188526	0.203561	-0.852804
13063		4.898466	-1.740464	8.214045	0.015026	0.017926	0.001070	-0.611328	-0.444580	-0.320068	-0.442504	-0.188330	0.203291	-0.852874
13064		4.885139	-1.766256	8.216889	0.010545	0.026187	0.005934	-0.607666	-0.439453	-0.317627	-0.442515	-0.188038	0.202989	-0.853005
13065		4.825037	-1.769032	8.245845	0.009180	0.025873	0.007411	-0.609863	-0.446289	-0.328125	-0.442520	-0.187733	0.202712	-0.853136
13066		4.788053	-1.781779	8.253257	0.010342	0.019600	0.004974	-0.610840	-0.444580	-0.323730	-0.442571	-0.187489	0.202480	-0.853218
13067		4.793144	-1.734650	8.242633	0.010950	0.009503	0.001880	-0.611572	-0.450195	-0.324463	-0.442593	-0.187378	0.202269	-0.853281
13068		4.838594	-1.747619	8.237924	0.006977	0.006858	0.002952	-0.621094	-0.442383	-0.327637	-0.442615	-0.187277	0.202106	-0.853330
13069		4.837878	-1.750782	8.255464	0.004267	0.007461	0.003663	-0.608887	-0.446045	-0.325684	-0.442550	-0.187152	0.201986	-0.853420
13070		4.851165	-1.748178	8.244816	0.004163	0.010392	0.004781	-0.616211	-0.447998	-0.327637	-0.442584	-0.186981	0.201857	-0.853470
13071		4.839985	-1.745258	8.235911	0.003011	0.012934	0.005398	-0.618896	-0.447510	-0.326904	-0.442569	-0.186785	0.201717	-0.853554
13072		4.797793	-1.760691	8.247462	0.001725	0.008446	0.008006	-0.613037	-0.440674	-0.325439	-0.442488	-0.186631	0.201613	-0.853654
13073		4.796961	-1.751565	8.268277	0.002797	0.010077	0.006259	-0.612793	-0.439697	-0.321533	-0.442453	-0.186457	0.201504	-0.853736
13074		4.764620	-1.779481	8.241226	0.002338	0.007064	0.006294	-0.616211	-0.449463	-0.316650	-0.442392	-0.186324	0.201397	-0.853822
13075		4.766296	-1.773647	8.277654	0.004067	-0.002878	0.000904	-0.615479	-0.440674	-0.324707	-0.442329	-0.186355	0.201259	-0.853880
13076		4.793175	-1.743283	8.236684	0.002566	-0.003893	0.003093	-0.608643	-0.444092	-0.324707	-0.442267	-0.186345	0.201212	-0.853926
13077		4.822560	-1.725203	8.244968	0.000757	-0.002242	0.004169	-0.608887	-0.448486	-0.324463	-0.442271	-0.186295	0.201183	-0.853941
13078		4.795753	-1.751790	8.268931	-0.001378	-0.002909	0.004571	-0.614502	-0.440918	-0.321289	-0.442279	-0.186246	0.201167	-0.853952
13079		4.821035	-1.780045	8.231740	0.000353	-0.000388	0.002364	-0.610596	-0.452148	-0.324463	-0.442231	-0.186198	0.201106	-0.854001
13080		4.799452	-1.743683	8.259058	-0.001481	0.000023	0.005688	-0.614258	-0.447754	-0.335938	-0.442224	-0.186124	0.201064	-0.854031
13081		4.780102	-1.769654	8.277080	-0.003232	-0.003534	0.004396	-0.613037	-0.442871	-0.321289	-0.442236	-0.186045	0.201119	-0.854029
13082		4.810268	-1.761673	8.236532	0.003210	-0.001649	0.001788	-0.614014	-0.448242	-0.326172	-0.442201	-0.186029	0.201029	-0.854072
13083		4.789371	-1.711251	8.267071	0.000168	0.000381	0.003633	-0.612793	-0.443359	-0.334473	-0.442182	-0.185962	0.200974	-0.854109
13084		4.797222	-1.759585	8.284199	-0.006933	-0.002393	0.006701	-0.616455	-0.448975	-0.326660	-0.442177	-0.185842	0.201072	-0.854115
13085		4.791133	-1.789953	8.253924	-0.005686	-0.004125	0.006776	-0.605713	-0.441162	-0.323486	-0.442108	-0.185788	0.201106	-0.854155
13086		4.823548	-1.737902	8.287338	-0.011294	-0.008273	0.005000	-0.606689	-0.449219	-0.332275	-0.442129	-0.185730	0.201243	-0.854124
13087		4.809152	-1.780439	8.242607	-0.017045	-0.005634	0.007555	-0.606689	-0.437744	-0.324219	-0.442191	-0.185590	0.201453	-0.854073
13088		4.795274	-1.759814	8.259801	-0.012875	-0.001372	0.007870	-0.607910	-0.445068	-0.326904	-0.442182	-0.185441	0.201582	-0.854079
13089		4.818910	-1.777536	8.254210	-0.015019	-0.004423	0.005615	-0.613281	-0.438232	-0.332275	-0.442217	-0.185321	0.201738	-0.854050
13090		4.794488	-1.793572	8.251768	-0.009045	0.001925	0.006666	-0.612793	-0.444580	-0.322998	-0.442194	-0.185150	0.201827	-0.854078
13091		4.808045	-1.767427	8.275139	-0.014620	0.001410	0.005297	-0.620850	-0.440918	-0.326904	-0.442184	-0.184995	0.201914	-0.854096
13092		4.783100	-1.784417	8.272788	-0.017634	0.000739	0.008828	-0.616455	-0.440430	-0.323730	-0.442073	-0.184822	0.202056	-0.854158
13093		4.786209	-1.779452	8.262600	-0.014266	0.001023	0.007658	-0.614258	-0.433105	-0.329834	-0.441990	-0.184669	0.202150	-0.854211
13094		4.732008	-1.826821	8.248491	-0.006834	-0.001580	0.007387	-0.615234	-0.438232	-0.332764	-0.441916	-0.184553	0.202229	-0.854256
13095		4.761412	-1.792808	8.243136	-0.000694	-0.008464	0.003973	-0.609131	-0.440674	-0.326416	-0.441863	-0.184552	0.202271	-0.854274
13096		4.780237	-1.768251	8.253083	0.000355	-0.008077	0.004474	-0.610840	-0.434082	-0.329346	-0.441842	-0.184563	0.202276	-0.854282
13097		4.781295	-1.799356	8.262272	0.001917	-0.006143	0.004384	-0.614502	-0.438721	-0.332031	-0.441802	-0.184547	0.202281	-0.854305
13098		4.793486	-1.819806	8.256094	0.002478	-0.006061	0.003231	-0.612305	-0.451904	-0.321045	-0.441760	-0.184541	0.202270	-0.854330
13099		4.791622	-1.784607	8.258350	0.003137	-0.005171	0.002773	-0.608154	-0.441406	-0.331299	-0.441734	-0.184580	0.202166	-0.854359
13100		4.760203	-1.780807	8.248834	0.002368	-0.005517	0.001696	-0.611572	-0.439209	-0.327393	-0.441780	-0.184563	0.202154	-0.854342
13101		4.770959	-1.787235	8.275046	0.002844	-0.007597	0.000691	-0.616211	-0.444336	-0.320312	-0.441770	-0.184592	0.202125	-0.854348
13102		4.772152	-1.800231	8.270918	0.002478	-0.009798	0.001415	-0.624756	-0.444824	-0.332031	-0.441686	-0.184682	0.202057	-0.854388
13103		4.778417	-1.777023	8.263472	0.003466	-0.010331	-0.000182	-0.606689	-0.451904	-0.330811	-0.441583	-0.184766	0.202016	-0.854433
13104		4.776699	-1.798955	8.268570	0.003674	-0.013803	0.000231	-0.605957	-0.444824	-0.326660	-0.441658	-0.184860	0.202010	-0.854375
13105		4.790283	-1.770325	8.238463	0.005236	-0.011869	0.000139	-0.612305	-0.439697	-0.326416	-0.441710	-0.184944	0.201976	-0.854338
13106		4.745115	-1.798702	8.250107	0.005333	-0.014797	-0.000984	-0.613525	-0.443359	-0.333740	-0.441687	-0.185070	0.201953	-0.854328
13107		4.759177	-1.760475	8.268150	0.000831	-0.021360	-0.001980	-0.614746	-0.445312	-0.317871	-0.441700	-0.185226	0.202037	-0.854268
13108		4.803309	-1.759553	8.251657	-0.006763	-0.027014	0.002524	-0.609619	-0.442383	-0.332031	-0.441596	-0.185447	0.202161	-0.854244
13109		4.789693	-1.826215	8.227734	-0.004314	-0.026420	0.000137	-0.605225	-0.436035	-0.318848	-0.441619	-0.185616	0.202339	-0.854153
13110		4.822502	-1.794240	8.265590	0.004046	-0.024149	-0.005116	-0.611328	-0.438477	-0.314453	-0.441653	-0.185848	0.202364	-0.854080
13111		4.818744	-1.790123	8.252615	0.002999	-0.020798	-0.003799	-0.616455	-0.447998	-0.323975	-0.441613	-0.186066	0.202346	-0.854057
13112		4.833873	-1.738650	8.273501	0.000359	-0.019266	-0.000985	-0.609131	-0.442139	-0.319580	-0.441575	-0.186234	0.202371	-0.854034
13113		4.825786	-1.785801	8.231585	-0.003200	-0.017426	0.000622	-0.614014	-0.442871	-0.325195	-0.441570	-0.186349	0.202437	-0.853996
13114		4.842372	-1.783850	8.246716	-0.000441	-0.015762	0.001157	-0.607666	-0.443604	-0.319824	-0.441537	-0.186451	0.202481	-0.853980
13115		4.839301	-1.785439	8.221956	-0.001387	-0.009019	0.000088	-0.610107	-0.436523	-0.318359	-0.441578	-0.186484	0.202483	-0.853952
13116		4.810187	-1.789862	8.245192	0.001834	-0.004350	0.000594	-0.611328	-0.436768	-0.320068	-0.441564	-0.186486	0.202430	-0.853971
13117		4.829929	-1.778240	8.223065	0.000505	-0.004777	0.000673	-0.608643	-0.448975	-0.328613	-0.441548	-0.186481	0.202399	-0.853988
13118		4.816839	-1.784201	8.250878	0.002029	-0.006467	0.000163	-0.606934	-0.439941	-0.325928	-0.441631	-0.186483	0.202379	-0.853949
13119		4.832464	-1.795073	8.235161	0.001540	-0.003040	0.000330	-0.618164	-0.444824	-0.325684	-0.441697	-0.186440	0.202356	-0.853930
13120		4.817734	-1.796455	8.247071	0.006086	-0.001678	-0.001063	-0.610107	-0.448730	-0.324707	-0.441678	-0.186442	0.202240	-0.853967
13121		4.825034	-1.776976	8.227991	0.003579	0.000546	0.001047	-0.611084	-0.447266	-0.324951	-0.441733	-0.186392	0.202146	-0.853971
13122		4.802894	-1.783961	8.262680	0.000725	0.001809	0.001637	-0.611084	-0.434814	-0.330078	-0.441778	-0.186311	0.202080	-0.853981
13123		4.806067	-1.787747	8.249862	0.004887	-0.003997	0.001392	-0.611816	-0.443848	-0.327148	-0.441771	-0.186285	0.202048	-0.853998
13124		4.798481	-1.784091	8.239028	0.004031	-0.006501	0.000464	-0.607910	-0.435791	-0.326416	-0.441787	-0.186304	0.202005	-0.853996
13125		4.792342	-1.753976	8.234331	0.000946	-0.006740	0.001069	-0.611816	-0.445312	-0.323975	-0.441802	-0.186294	0.202017	-0.853988
13126		4.795835	-1.775407	8.262759	-0.002196	-0.012982	-0.001400	-0.618896	-0.441650	-0.329834	-0.441829	-0.186366	0.202053	-0.853949
13127		4.824039	-1.767552	8.278924	-0.006278	-0.013924	0.003048	-0.618896	-0.444580	-0.313721	-0.441757	-0.186403	0.202169	-0.853951
13128		4.833705	-1.821863	8.229155	-0.004091	-0.010992	0.003895	-0.610840	-0.437500	-0.321289	-0.441626	-0.186480	0.202168	-0.854002
13129		4.829027	-1.796634	8.240425	0.001898	-0.007160	0.000869	-0.607910	-0.439697	-0.324219	-0.441606	-0.186504	0.202141	-0.854014
13130		4.831737	-1.756154	8.249502	0.001115	-0.002425	0.000774	-0.609619	-0.443848	-0.330322	-0.441650	-0.186458	0.202111	-0.854008
13131		4.821025	-1.766754	8.264815	-0.001327	-0.003013	0.003164	-0.608154	-0.446045	-0.334473	-0.441697	-0.186387	0.202133	-0.853994
13132		4.814518	-1.795396	8.234931	-0.000014	-0.001237	0.002243	-0.613525	-0.447998	-0.329590	-0.441794	-0.186290	0.202145	-0.853962
13133		4.823336	-1.798372	8.245189	0.001463	-0.001464	0.002294	-0.611084	-0.436035	-0.321777	-0.441824	-0.186236	0.202106	-0.853968
13134		4.822803	-1.780544	8.232120	0.004762	0.001626	0.000832	-0.614014	-0.447510	-0.333252	-0.441800	-0.186183	0.202000	-0.854017
13135		4.807319	-1.768325	8.248081	0.005982	0.006326	0.001036	-0.613281	-0.441895	-0.325439	-0.441858	-0.186062	0.201882	-0.854041
13136		4.793113	-1.800390	8.241651	0.005991	0.001246	0.000057	-0.608887	-0.442383	-0.326172	-0.441859	-0.186019	0.201764	-0.854078
13137		4.823582	-1.741091	8.259963	0.004732	0.001740	0.002234	-0.616943	-0.438477	-0.321533	-0.441887	-0.185948	0.201673	-0.854100
13138		4.801075	-1.771920	8.242603	-0.004552	0.001136	0.005458	-0.605469	-0.444580	-0.326904	-0.441785	-0.185854	0.201661	-0.854177
13139		4.795577	-1.791806	8.232537	-0.001669	-0.000240	0.003463	-0.615479	-0.443604	-0.328369	-0.441856	-0.185758	0.201658	-0.854161
13140		4.789487	-1.783955	8.258112	-0.000309	0.000073	0.001980	-0.611084	-0.448975	-0.333496	-0.441845	-0.185685	0.201622	-0.854191
13141		4.824295	-1.734619	8.279469	-0.006564	0.000024	0.000257	-0.615479	-0.442627	-0.326660	-0.441955	-0.185561	0.201672	-0.854149
13142		4.821637	-1.763700	8.301503	-0.016234	-0.005157	0.001544	-0.611328	-0.436768	-0.335205	-0.441958	-0.185465	0.201826	-0.854132
13143		4.809645	-1.810608	8.243997	-0.019974	-0.006280	0.002609	-0.612305	-0.450928	-0.324219	-0.441995	-0.185314	0.202083	-0.854085
13144		4.776125	-1.779619	8.253280	-0.011765	-0.002220	0.002112	-0.623047	-0.439941	-0.317871	-0.442056	-0.185220	0.202155	-0.854057
13145		4.783817	-1.763577	8.233224	-0.009716	-0.003717	0.001847	-0.604736	-0.444824	-0.327393	-0.441928	-0.185190	0.202180	-0.854124
13146		4.807946	-1.766902	8.230827	-0.011871	-0.000532	0.005480	-0.609131	-0.439697	-0.324463	-0.442007	-0.185037	0.202289	-0.854090
13147		4.780673	-1.796481	8.254671	-0.015805	0.000461	0.006978	-0.610107	-0.441406	-0.320801	-0.442001	-0.184865	0.202423	-0.854099
13148		4.764259	-1.798038	8.249686	-0.008128	-0.001994	0.007493	-0.603516	-0.452637	-0.326172	-0.441952	-0.184777	0.202468	-0.854133
13149		4.768443	-1.807703	8.252837	0.000497	-0.002284	0.004731	-0.607910	-0.438232	-0.327393	-0.442053	-0.184725	0.202434	-0.854100
13150		4.765565	-1.786026	8.252199	0.005002	-0.004545	0.002917	-0.613281	-0.437500	-0.333496	-0.442039	-0.184720	0.202378	-0.854121
13151		4.774656	-1.801675	8.258887	0.005312	-0.007204	0.004016	-0.613770	-0.439453	-0.323975	-0.441975	-0.184731	0.202353	-0.854158
13152		4.800302	-1.788087	8.259930	0.007298	-0.005891	0.003476	-0.616699	-0.446533	-0.321533	-0.441889	-0.184776	0.202254	-0.854216
13153		4.765050	-1.792952	8.260536	0.005747	-0.004087	0.005392	-0.617432	-0.449463	-0.326904	-0.441797	-0.184808	0.202141	-0.854283
13154		4.752673	-1.798289	8.288159	0.005816	-0.014469	0.000619	-0.611084	-0.442383	-0.331299	-0.441757	-0.184948	0.202091	-0.854286
13155		4.799689	-1.760286	8.269491	0.000337	-0.016750	0.003052	-0.607910	-0.440674	-0.333252	-0.441736	-0.185040	0.202160	-0.854261
13156		4.801816	-1.818270	8.270915	-0.000670	-0.018594	0.001991	-0.610840	-0.438232	-0.332275	-0.441751	-0.185135	0.202265	-0.854208
13157		4.815501	-1.804201	8.236716	0.000367	-0.016858	0.001647	-0.610840	-0.443848	-0.322021	-0.441727	-0.185224	0.202342	-0.854182
13158		4.827584	-1.792916	8.248818	0.006571	-0.010186	-0.002233	-0.608643	-0.442383	-0.324707	-0.441745	-0.185326	0.202257	-0.854171
13159		4.782688	-1.777288	8.254395	0.000376	-0.010543	0.000390	-0.611572	-0.442871	-0.318848	-0.441768	-0.185375	0.202265	-0.854146
13160		4.808903	-1.778258	8.251225	-0.001345	-0.013049	0.002595	-0.612305	-0.437500	-0.329834	-0.441722	-0.185462	0.202280	-0.854148
13161		4.807839	-1.787956	8.259292	-0.001333	-0.011812	0.000353	-0.619629	-0.442627	-0.321289	-0.441704	-0.185500	0.202335	-0.854136
13162		4.808494	-1.797636	8.238244	-0.000281	-0.011427	0.000848	-0.616699	-0.434814	-0.321289	-0.441615	-0.185587	0.202322	-0.854166
13163		4.815442	-1.809579	8.257191	0.002300	-0.006421	-0.000429	-0.611084	-0.435791	-0.327148	-0.441529	-0.185625	0.202267	-0.854215
13164		4.785393	-1.778405	8.254476	0.004286	-0.005109	-0.000972	-0.616699	-0.444824	-0.317383	-0.441531	-0.185629	0.202218	-0.854225
13165		4.767743	-1.771855	8.262253	0.000109	-0.009344	-0.001276	-0.612793	-0.442627	-0.331787	-0.441488	-0.185711	0.202171	-0.854241
13166		4.784937	-1.782837	8.245444	0.000407	-0.015725	-0.002001	-0.611816	-0.446533	-0.328613	-0.441518	-0.185802	0.202226	-0.854192
13167		4.805308	-1.801865	8.260848	-0.000610	-0.018804	-0.000821	-0.608887	-0.445557	-0.322510	-0.441546	-0.185930	0.202295	-0.854134
13168		4.819439	-1.803835	8.240067	0.007679	-0.015091	-0.005543	-0.604492	-0.437988	-0.325439	-0.441616	-0.186090	0.202227	-0.854078
13169		4.816973	-1.818752	8.229271	0.018737	-0.008488	-0.011981	-0.613525	-0.443115	-0.324219	-0.441761	-0.186229	0.202023	-0.854022
13170		4.803987	-1.744093	8.270305	0.020807	-0.005019	-0.012673	-0.616699	-0.444336	-0.328125	-0.441849	-0.186371	0.201746	-0.854010
13171		4.817999	-1.733461	8.270858	0.010190	-0.008509	-0.004856	-0.611816	-0.441650	-0.320068	-0.441858	-0.186466	0.201629	-0.854012
13172		4.812218	-1.746640	8.272621	-0.000331	-0.013685	-0.000406	-0.615234	-0.436523	-0.334961	-0.441833	-0.186561	0.201645	-0.854001
13173		4.820669	-1.786287	8.255280	-0.003586	-0.013155	0.001483	-0.610596	-0.448975	-0.329346	-0.441794	-0.186579	0.201759	-0.853991
13174		4.851309	-1.751471	8.248866	-0.001305	-0.006844	-0.000061	-0.619141	-0.446045	-0.318115	-0.441870	-0.186565	0.201779	-0.853949
13175		4.839285	-1.771656	8.244426	-0.000411	-0.001967	0.003528	-0.614990	-0.437500	-0.322998	-0.441780	-0.186551	0.201712	-0.854015
13176		4.817330	-1.762098	8.265661	-0.000982	-0.000700	0.003846	-0.612061	-0.451416	-0.319580	-0.441706	-0.186486	0.201685	-0.854074
13177		4.816793	-1.776259	8.262262	-0.001888	-0.001738	0.003483	-0.604736	-0.438721	-0.325684	-0.441716	-0.186447	0.201644	-0.854087
13178		4.827404	-1.780087	8.243097	-0.000834	-0.001353	0.003976	-0.616699	-0.444824	-0.320801	-0.441756	-0.186359	0.201650	-0.854084
13179		4.822952	-1.772214	8.239711	0.002269	0.003843	0.002940	-0.608643	-0.446289	-0.334961	-0.441705	-0.186284	0.201537	-0.854153
13180		4.774663	-1.788193	8.257252	0.001551	0.005763	0.003127	-0.605469	-0.443115	-0.328125	-0.441796	-0.186120	0.201493	-0.854152
13181		4.803118	-1.770368	8.265727	0.000097	-0.000427	0.002936	-0.607666	-0.445557	-0.326904	-0.441863	-0.186029	0.201480	-0.854140
13182		4.790030	-1.773205	8.248380	-0.000894	-0.003618	0.002717	-0.611328	-0.437256	-0.323242	-0.441913	-0.185980	0.201481	-0.854125
13183		4.801055	-1.749438	8.264430	0.001094	-0.007380	0.001186	-0.613037	-0.446777	-0.328125	-0.441868	-0.186000	0.201466	-0.854148
13184		4.820931	-1.768760	8.251882	0.000800	-0.006073	0.000925	-0.610840	-0.443359	-0.336914	-0.441887	-0.185998	0.201451	-0.854142
13185		4.817048	-1.774053	8.244660	0.000166	-0.002000	0.000969	-0.617676	-0.439453	-0.333008	-0.441948	-0.185913	0.201463	-0.854126
13186		4.805764	-1.767000	8.246988	0.001220	-0.001614	0.001461	-0.614014	-0.436035	-0.323730	-0.441900	-0.185853	0.201438	-0.854170
13187		4.797872	-1.780740	8.249870	0.006606	-0.001488	-0.000846	-0.606689	-0.443848	-0.330811	-0.441846	-0.185850	0.201323	-0.854225
13188		4.809597	-1.755473	8.237646	0.006672	0.002011	-0.001829	-0.612061	-0.437256	-0.335449	-0.441953	-0.185778	0.201220	-0.854210
13189		4.791030	-1.752291	8.263216	0.004048	0.003541	0.001002	-0.614502	-0.437012	-0.326660	-0.441961	-0.185660	0.201156	-0.854247
13190		4.766589	-1.764599	8.261944	0.000633	-0.004073	-0.000043	-0.608643	-0.452637	-0.319824	-0.441911	-0.185643	0.201128	-0.854283
13191		4.796106	-1.760102	8.266257	-0.000028	-0.006191	0.002661	-0.614014	-0.445068	-0.333496	-0.441955	-0.185660	0.201094	-0.854264
13192		4.807695	-1.763651	8.246579	-0.002154	-0.005615	0.000836	-0.606445	-0.447510	-0.329346	-0.441976	-0.185622	0.201125	-0.854254
13193		4.797786	-1.760770	8.265140	0.000527	0.000193	0.000246	-0.614502	-0.440186	-0.324219	-0.442083	-0.185539	0.201091	-0.854225
13194		4.765225	-1.757483	8.256610	-0.001232	-0.000851	0.003021	-0.616455	-0.446289	-0.329834	-0.442022	-0.185481	0.201059	-0.854277
13195		4.757570	-1.745719	8.294377	-0.004076	-0.009730	0.001658	-0.609863	-0.447754	-0.322266	-0.441998	-0.185494	0.201114	-0.854273
13196		4.766150	-1.755641	8.266753	-0.007773	-0.018612	0.003431	-0.616455	-0.445312	-0.324707	-0.441988	-0.185590	0.201245	-0.854227
13197		4.781808	-1.764592	8.261479	-0.007011	-0.021989	0.002677	-0.614014	-0.445801	-0.321289	-0.441909	-0.185732	0.201384	-0.854204
13198		4.816560	-1.778524	8.247798	-0.001305	-0.016978	-0.002034	-0.607422	-0.442383	-0.321777	-0.441896	-0.185869	0.201416	-0.854173
13199		4.831681	-1.771447	8.246918	0.005364	-0.009899	-0.002883	-0.605225	-0.442627	-0.328125	-0.441940	-0.185951	0.201355	-0.854147
13200		4.807358	-1.752128	8.264051	0.001901	-0.005911	-0.001392	-0.604492	-0.450195	-0.328125	-0.442027	-0.185941	0.201341	-0.854107
13201		4.785310	-1.720782	8.254907	-0.002725	-0.010646	0.002409	-0.614746	-0.452881	-0.325928	-0.442124	-0.185950	0.201405	-0.854041
13202		5.466330	-1.561561	7.897912	0.006983	-0.032307	-0.012968	-0.602783	-0.438965	-0.328125	-0.442228	-0.186311	0.201421	-0.853904
13203		5.329688	-1.435587	8.022214	-0.013160	-0.019985	-0.000556	-0.617676	-0.444336	-0.326904	-0.442293	-0.186361	0.201655	-0.853804
13204		4.509638	-2.028556	8.379979	0.006596	-0.017942	-0.010132	-0.611572	-0.446045	-0.324707	-0.442327	-0.186557	0.201611	-0.853754
13205		4.917466	-1.646025	8.223752	0.009303	-0.028678	-0.012853	-0.606689	-0.448242	-0.314941	-0.442413	-0.186885	0.201593	-0.853643
13206		5.003687	-1.655347	8.130389	-0.004793	-0.025485	-0.005181	-0.611328	-0.446045	-0.320801	-0.442485	-0.187103	0.201700	-0.853532
13207		4.890915	-1.725047	8.153287	0.006862	-0.038168	-0.023228	-0.613281	-0.451416	-0.329590	-0.442654	-0.187554	0.201726	-0.853339
13208		4.992413	-1.741720	8.175658	0.033190	-0.062792	-0.045814	-0.614990	-0.451660	-0.335693	-0.442985	-0.188445	0.201581	-0.853005
13209		5.085230	-1.682357	8.133641	0.032827	-0.062226	-0.038245	-0.618164	-0.446777	-0.327393	-0.443239	-0.189288	0.201479	-0.852711
13210		5.161895	-1.712924	8.089294	0.043409	-0.049911	-0.043339	-0.618164	-0.444580	-0.322754	-0.443464	-0.190099	0.201156	-0.852489
13211		5.165834	-1.671599	8.098478	0.053680	-0.032464	-0.045476	-0.620361	-0.452881	-0.329590	-0.443697	-0.190796	0.200611	-0.852341
13212		5.110232	-1.698618	8.092897	0.069244	-0.007122	-0.050671	-0.626709	-0.454346	-0.333252	-0.444063	-0.191305	0.199766	-0.852235
13213		4.879258	-1.827738	8.173524	0.116314	0.016989	-0.084415	-0.618896	-0.460205	-0.337158	-0.444690	-0.191901	0.198207	-0.852138
13214		4.866317	-1.621182	8.255772	0.142955	0.014898	-0.113943	-0.620117	-0.472168	-0.332275	-0.445647	-0.192721	0.196324	-0.851889
13215		5.156809	-1.377032	8.120999	0.114890	-0.004929	-0.096924	-0.633789	-0.470947	-0.323730	-0.446451	-0.193578	0.194862	-0.851609
13216		5.203533	-1.377678	8.106730	0.094701	-0.011984	-0.077090	-0.618408	-0.479248	-0.331787	-0.447013	-0.194368	0.193681	-0.851404
13217		5.042834	-1.538961	8.167815	0.102385	-0.009170	-0.075769	-0.622070	-0.481689	-0.335938	-0.447594	-0.195156	0.192418	-0.851205
13218		5.101166	-1.437299	8.159404	0.099393	0.012157	-0.074243	-0.624512	-0.481934	-0.333496	-0.448205	-0.195698	0.191069	-0.851062
13219		5.010105	-1.406027	8.196912	0.091327	0.029674	-0.064170	-0.625244	-0.493652	-0.330811	-0.448770	-0.195986	0.189731	-0.850998
13220		5.204350	-1.264036	8.124700	0.079312	0.029956	-0.055877	-0.630615	-0.499023	-0.332275	-0.449276	-0.196182	0.188540	-0.850950
13221		5.059221	-1.305168	8.181932	0.072495	0.034800	-0.048295	-0.630371	-0.496338	-0.333252	-0.449730	-0.196271	0.187412	-0.850939
13222		4.903879	-1.314590	8.218101	0.071323	0.036056	-0.054032	-0.621338	-0.499023	-0.335449	-0.450249	-0.196354	0.186276	-0.850895
13223		4.702762	-1.247450	8.376363	0.029540	0.003710	-0.046572	-0.628418	-0.511230	-0.341309	-0.450716	-0.196528	0.185784	-0.850715
13224		5.087691	-1.101799	8.208542	-0.003093	-0.052184	-0.033782	-0.632812	-0.506592	-0.333984	-0.450997	-0.197082	0.185985	-0.850394
13225		5.179315	-1.210089	8.136373	-0.028732	-0.072739	-0.020895	-0.633545	-0.503662	-0.333984	-0.451155	-0.197681	0.186606	-0.850035
13226		4.867195	-1.483690	8.284193	-0.020003	-0.066364	-0.031523	-0.637451	-0.510498	-0.341553	-0.451420	-0.198286	0.187072	-0.849651
13227		5.126195	-1.206399	8.115303	0.001629	-0.044583	-0.040099	-0.643066	-0.508789	-0.338379	-0.451774	-0.198801	0.187164	-0.849322
13228		5.105169	-1.098261	8.169257	-0.036358	-0.039712	-0.014163	-0.654297	-0.515625	-0.339844	-0.451957	-0.198990	0.187696	-0.849063
13229		4.765634	-1.334895	8.342128	-0.059343	-0.077944	-0.001230	-0.647949	-0.514404	-0.338867	-0.451970	-0.199424	0.188720	-0.848727
13230		5.095272	-1.419094	8.161744	-0.029192	-0.119338	-0.039220	-0.644531	-0.513916	-0.341064	-0.452213	-0.200557	0.189563	-0.848143
13231		5.249216	-1.334231	8.070016	-0.016749	-0.113025	-0.050205	-0.650391	-0.514160	-0.332275	-0.452555	-0.201719	0.190211	-0.847540
13232		5.022038	-1.369949	8.240766	0.002337	-0.094699	-0.048317	-0.666016	-0.524170	-0.332275	-0.452871	-0.202790	0.190557	-0.847037
13233		5.475248	-1.386844	7.987740	0.039345	-0.092912	-0.062693	-0.656982	-0.530273	-0.339844	-0.453250	-0.204086	0.190465	-0.846544
13234		5.521564	-1.281236	7.925242	0.053996	-0.050625	-0.054361	-0.655518	-0.540527	-0.325928	-0.453603	-0.204997	0.189999	-0.846239
13235		5.066699	-1.664935	8.098711	0.105418	0.017188	-0.081879	-0.664551	-0.532715	-0.324707	-0.454277	-0.205548	0.188535	-0.846072
13236		5.434336	-1.070495	7.997932	0.125524	0.069731	-0.094039	-0.669922	-0.536865	-0.329346	-0.455149	-0.205685	0.186529	-0.846014
13237		5.241353	-1.014247	8.147196	0.089131	0.129109	-0.053526	-0.659668	-0.537354	-0.323486	-0.455823	-0.204892	0.184673	-0.846251
13238		5.364019	-0.961558	8.031784	0.059403	0.154095	-0.025311	-0.664551	-0.540527	-0.330811	-0.456331	-0.203600	0.183061	-0.846639
13239		5.076404	-1.059990	8.200852	0.042362	0.152877	-0.012868	-0.673096	-0.551025	-0.334961	-0.456746	-0.202194	0.181667	-0.847053
13240		5.169965	-0.932440	8.248480	0.021350	0.121370	-0.002385	-0.665039	-0.547363	-0.329590	-0.456979	-0.200988	0.180689	-0.847423
13241		5.005284	-1.327611	8.334829	0.020819	0.068277	-0.009142	-0.672363	-0.553223	-0.332764	-0.457216	-0.200346	0.180015	-0.847591
13242		5.175568	-1.379613	8.275120	0.079010	0.058331	-0.032664	-0.669434	-0.547119	-0.325684	-0.457466	-0.200208	0.178706	-0.847765
13243		5.365767	-1.234852	8.098299	0.126284	0.107815	-0.024975	-0.665283	-0.551514	-0.324219	-0.457692	-0.199785	0.176648	-0.848174
13244		4.764042	-1.148064	8.246788	0.145562	0.133308	-0.036064	-0.667236	-0.557861	-0.327881	-0.458042	-0.199225	0.174212	-0.848621
13245		4.753673	-0.693819	8.369538	0.068126	0.080934	-0.006745	-0.662109	-0.558350	-0.333252	-0.458080	-0.198728	0.172952	-0.848974
13246		5.047001	-0.877241	8.237907	0.023721	0.052634	0.015055	-0.668213	-0.558838	-0.330566	-0.458013	-0.198215	0.172396	-0.849244
13247		4.878752	-0.908453	8.307987	0.005920	0.037445	0.014221	-0.669678	-0.554443	-0.333740	-0.457885	-0.197778	0.172095	-0.849475
13248		4.861519	-0.931271	8.325697	0.005271	0.024944	-0.007138	-0.670166	-0.557617	-0.326416	-0.457946	-0.197520	0.171816	-0.849559
13249		4.781723	-0.975831	8.228456	-0.014580	0.023638	-0.012580	-0.665527	-0.555176	-0.331543	-0.458093	-0.197176	0.171738	-0.849575
13250		4.843874	-0.861022	8.297586	-0.055782	-0.006283	-0.010623	-0.670654	-0.553223	-0.325439	-0.458368	-0.196888	0.172300	-0.849380
13251		4.705065	-1.106304	8.307366	-0.070936	-0.038933	-0.022800	-0.665771	-0.564941	-0.330566	-0.458738	-0.196887	0.173180	-0.849002
13252		4.677937	-1.174959	8.404806	-0.090398	-0.104784	-0.035294	-0.670654	-0.561279	-0.335205	-0.459089	-0.197510	0.174599	-0.848376
13253		4.586572	-1.525717	8.537384	-0.080353	-0.215416	-0.058387	-0.668213	-0.559326	-0.330078	-0.459400	-0.199417	0.176484	-0.847371
13254		4.672685	-1.424182	8.464569	-0.045967	-0.314618	-0.096871	-0.678955	-0.558350	-0.327637	-0.459808	-0.202654	0.178476	-0.845963
13255		4.671839	-1.494591	8.459748	-0.015070	-0.420737	-0.142088	-0.683105	-0.564941	-0.321045	-0.460327	-0.207296	0.180622	-0.844099
13256		4.796004	-1.532917	8.520044	0.100950	-0.582673	-0.268884	-0.672363	-0.566895	-0.310547	-0.461500	-0.214589	0.182137	-0.841306
13257		5.060106	-0.986353	8.637848	0.149103	-0.802905	-0.326707	-0.692871	-0.576416	-0.293213	-0.462653	-0.224579	0.184255	-0.837596
13258		5.129834	-0.435507	8.762119	0.074785	-1.116367	-0.296606	-0.697754	-0.589600	-0.274414	-0.462826	-0.237331	0.188993	-0.832915
13259		5.240615	-0.797938	8.610876	0.111815	-1.428748	-0.259245	-0.713623	-0.591309	-0.245117	-0.461665	-0.253393	0.195215	-0.827375
13260		5.716615	-1.037895	8.215105	0.245913	-1.698271	-0.294853	-0.726807	-0.606445	-0.227051	-0.459548	-0.273017	0.201388	-0.820804
13261		6.156337	-1.275752	7.799401	0.361913	-1.953404	-0.407548	-0.748779	-0.610352	-0.174561	-0.457350	-0.296045	0.207351	-0.812524
13262		6.062123	-1.247047	7.838464	0.424215	-2.255247	-0.559333	-0.760254	-0.623535	-0.125732	-0.455222	-0.322695	0.213634	-0.801874
13263		6.447938	-0.992416	7.789576	0.415283	-2.625557	-0.711621	-0.770752	-0.640625	-0.066650	-0.453176	-0.353092	0.221249	-0.788040
13264		7.120562	-1.286608	7.790661	0.532258	-3.010801	-0.942695	-0.773682	-0.667236	-0.008301	-0.451160	-0.388110	0.228521	-0.770456
13265		8.287432	-0.909580	7.829744	0.672812	-3.343518	-1.197016	-0.772949	-0.681152	0.077393	-0.449168	-0.427144	0.234643	-0.748825
13266		8.763083	-0.220826	7.649655	0.662565	-3.617731	-1.286989	-0.763428	-0.711182	0.160889	-0.446187	-0.468049	0.241301	-0.723617
13267		9.438807	0.002335	6.986190	0.526311	-3.791454	-1.309694	-0.741699	-0.732422	0.235107	-0.442567	-0.508705	0.249352	-0.695109
13268		11.839556	0.037089	5.739698	0.078121	-3.577867	-1.264858	-0.723877	-0.751221	0.305176	-0.441026	-0.543688	0.259739	-0.665158
13269		11.893390	0.933680	11.976416	-0.597368	-2.122482	-0.946411	-0.691895	-0.777344	0.338379	-0.445894	-0.560816	0.269796	-0.643330
13270		4.992190	-4.654303	12.464174	-1.123161	0.905466	-0.486627	-0.690918	-0.773438	0.306396	-0.460680	-0.548758	0.270247	-0.643122
13271		2.521252	-3.998902	8.640823	-0.856581	2.062171	0.197494	-0.690674	-0.764404	0.258545	-0.471774	-0.526303	0.266422	-0.655328
13272		2.632649	-4.781111	8.057344	-0.695196	2.915750	1.048320	-0.706299	-0.745850	0.197266	-0.475130	-0.495101	0.260075	-0.679329
13273		1.668734	-2.665080	7.132933	-0.277611	3.556173	1.679061	-0.728027	-0.701660	0.120361	-0.470333	-0.458259	0.249203	-0.711817
13274		-0.617311	0.802526	5.254377	-0.905473	3.271082	1.950437	-0.740967	-0.653076	0.051270	-0.464349	-0.418273	0.246859	-0.740600
13275		4.228889	-1.609891	7.813259	-1.164122	2.766438	1.731238	-0.740967	-0.608154	-0.028809	-0.459531	-0.381051	0.248806	-0.762710
13276		6.338900	0.244520	10.603895	-1.005438	3.219590	1.822170	-0.726318	-0.554199	-0.101807	-0.454304	-0.339053	0.247270	-0.785817
13277		8.113747	0.226676	9.734204	-1.351074	3.374200	1.625180	-0.687988	-0.495850	-0.163574	-0.453924	-0.292707	0.247852	-0.804267
13278		9.756303	-2.276204	8.875271	-0.981205	3.173917	1.263111	-0.641357	-0.443359	-0.192871	-0.454187	-0.250934	0.243976	-0.819282
13279		12.716864	-3.861626	9.344022	-0.572754	2.848069	1.429524	-0.618896	-0.405029	-0.217529	-0.449643	-0.213851	0.237852	-0.833976
13280		14.519137	-2.678866	8.895211	-0.037082	2.821500	2.064805	-0.602051	-0.366211	-0.237061	-0.436167	-0.177789	0.227579	-0.852266
13281		13.280546	0.311571	7.093268	-0.008233	2.752533	2.194846	-0.589600	-0.333984	-0.277588	-0.420207	-0.141911	0.217235	-0.869538
13282		13.099787	0.496162	4.170699	0.315893	2.267983	1.504242	-0.575439	-0.312988	-0.313965	-0.409207	-0.114656	0.204355	-0.881840
13283		13.432653	0.441422	1.588903	0.479152	1.568582	0.817094	-0.563721	-0.298828	-0.334961	-0.403419	-0.097608	0.192101	-0.889282
13284		12.886338	-0.551489	-0.014875	0.454397	0.582023	0.455528	-0.544189	-0.300293	-0.346924	-0.399191	-0.092245	0.184603	-0.893342
13285		12.213908	-0.531636	0.569235	0.590308	-0.269166	0.311728	-0.548096	-0.298340	-0.333496	-0.394420	-0.097398	0.179664	-0.895917
13286		11.160738	-0.746616	0.483494	0.983056	-1.081762	0.032415	-0.566895	-0.316650	-0.310547	-0.390404	-0.114202	0.173966	-0.896816
13287		4.770340	-0.387944	11.227444	0.937286	-1.251674	-0.027996	-0.578613	-0.332031	-0.290039	-0.386632	-0.132787	0.169474	-0.896751
13288		-0.788356	2.843163	9.107808	0.733372	-1.427529	-0.535845	-0.592285	-0.356445	-0.264648	-0.388356	-0.153378	0.167202	-0.893139
13289		7.856325	0.267514	9.988496	0.216498	-1.684754	-0.663802	-0.613525	-0.361816	-0.244385	-0.391768	-0.174524	0.171612	-0.886909
13290		6.071982	-2.141353	8.790370	0.202071	-1.509762	-0.480300	-0.622070	-0.375977	-0.211426	-0.393375	-0.193189	0.175647	-0.881523
13291		10.694330	-2.913200	11.228920	0.745133	-0.703712	-0.560104	-0.621338	-0.386963	-0.193604	-0.396200	-0.205761	0.169491	-0.878613
13292		5.986497	-1.103669	8.625638	0.547616	-0.092074	-0.438153	-0.618896	-0.400635	-0.196045	-0.399436	-0.210352	0.162770	-0.877330
13293		5.343290	-1.863173	8.234808	0.311295	0.024735	-0.373614	-0.602051	-0.409180	-0.188965	-0.402800	-0.212340	0.158218	-0.876145
13294		5.574548	-0.621020	8.383689	0.166083	0.076977	-0.315226	-0.604248	-0.418945	-0.190186	-0.406002	-0.212903	0.155145	-0.875080
13295		5.202122	-0.113906	8.516472	0.023573	0.018367	-0.171249	-0.600098	-0.420654	-0.188721	-0.407890	-0.213102	0.154309	-0.874301
13296		5.125172	-0.467476	8.339873	-0.038938	-0.031147	-0.100155	-0.580566	-0.416992	-0.199707	-0.409070	-0.213387	0.154596	-0.873629
13297		5.335682	-0.628528	8.139251	-0.074742	-0.039612	-0.066103	-0.584229	-0.428711	-0.206543	-0.409957	-0.213515	0.155408	-0.873038
13298		5.071907	-0.845040	8.283991	-0.079357	-0.022024	-0.034366	-0.583008	-0.434082	-0.221924	-0.410543	-0.213366	0.156264	-0.872646
13299		5.087296	-0.584317	8.267304	-0.113788	-0.020622	0.028877	-0.583008	-0.432129	-0.231689	-0.410533	-0.212901	0.157658	-0.872514
13300		5.181532	-0.971458	8.143194	-0.117270	-0.038814	0.045166	-0.584961	-0.442627	-0.239502	-0.410318	-0.212585	0.159225	-0.872407
13301		4.970443	-1.152052	8.238533	-0.085861	0.008048	0.021176	-0.582031	-0.447266	-0.260742	-0.410374	-0.211965	0.160145	-0.872363
13302		5.087107	-0.974510	8.312297	-0.087015	-0.012535	0.029606	-0.589600	-0.448975	-0.270020	-0.410299	-0.211548	0.161206	-0.872304
13303		5.237785	-1.255967	8.144783	-0.056338	-0.018434	0.006389	-0.588135	-0.459473	-0.276611	-0.410385	-0.211398	0.161901	-0.872172
13304		4.917547	-1.168560	8.369739	-0.039553	-0.029372	-0.007797	-0.604736	-0.462646	-0.306885	-0.410558	-0.211483	0.162432	-0.871970
13305		5.088157	-1.049498	8.239477	-0.051453	-0.093418	-0.005432	-0.608398	-0.468506	-0.302979	-0.410607	-0.212200	0.163428	-0.871587
13306		5.054495	-1.103755	8.310413	-0.046814	-0.095557	-0.001627	-0.619141	-0.480225	-0.314209	-0.410597	-0.212955	0.164394	-0.871226
13307		5.346115	-0.805723	8.129567	-0.059236	-0.090388	0.016702	-0.627930	-0.491455	-0.318115	-0.410431	-0.213553	0.165518	-0.870945
