// Start Time: Unknown
// Update Rate: 40.0Hz
// Filter Profile: human (46.1)
// Firmware Version: 4.6.0
PacketCounter	SampleTimeFine	Acc_X	Acc_Y	Acc_Z	Gyr_X	Gyr_Y	Gyr_Z	Mag_X	Mag_Y	Mag_Z	Quat_q0	Quat_q1	Quat_q2	Quat_q3
12405		3.888800	1.203042	8.811901	-0.002536	-0.010203	-0.003889	-0.576904	-0.208252	-0.436768	-0.192016	-0.213513	-0.021905	-0.957634
12406		3.908409	1.245302	8.796541	-0.000072	-0.009816	-0.005142	-0.577393	-0.206055	-0.446289	-0.192080	-0.213628	-0.021894	-0.957595
12407		3.910217	1.245782	8.795670	0.000975	-0.007728	-0.002647	-0.571045	-0.208984	-0.442871	-0.192110	-0.213713	-0.021891	-0.957571
12408		3.908319	1.216683	8.823928	-0.000324	-0.006252	-0.003035	-0.575439	-0.214844	-0.441650	-0.192149	-0.213788	-0.021882	-0.957546
12409		3.909804	1.224551	8.830194	0.006535	-0.006304	-0.004115	-0.574463	-0.214600	-0.442383	-0.192183	-0.213880	-0.021958	-0.957517
12410		3.890350	1.218918	8.809880	0.004391	-0.004441	-0.004523	-0.564941	-0.210449	-0.443604	-0.192227	-0.213946	-0.022016	-0.957492
12411		3.898983	1.238736	8.818693	0.006855	-0.004054	-0.005777	-0.570068	-0.206543	-0.443359	-0.192280	-0.214012	-0.022109	-0.957465
12412		3.892224	1.229586	8.815583	0.007545	-0.005443	-0.004626	-0.575195	-0.206787	-0.445801	-0.192319	-0.214097	-0.022209	-0.957435
12413		3.906827	1.216966	8.801365	0.006750	-0.007341	-0.005135	-0.573486	-0.207764	-0.439697	-0.192367	-0.214203	-0.022299	-0.957400
12414		3.883442	1.254249	8.793908	0.006978	-0.007886	-0.004952	-0.572266	-0.206787	-0.451172	-0.192412	-0.214318	-0.022389	-0.957363
12415		3.904366	1.246585	8.815205	0.003875	-0.009169	-0.005337	-0.570801	-0.206055	-0.437744	-0.192472	-0.214438	-0.022449	-0.957323
12416		3.905518	1.234192	8.800393	0.003841	-0.006394	-0.003648	-0.571533	-0.208496	-0.446289	-0.192512	-0.214529	-0.022514	-0.957293
12417		3.875894	1.282134	8.795060	-0.001696	-0.007082	-0.000372	-0.571289	-0.209229	-0.447266	-0.192529	-0.214615	-0.022507	-0.957270
12418		3.932519	1.196679	8.822105	0.001965	-0.007606	-0.004961	-0.568115	-0.208984	-0.437988	-0.192595	-0.214710	-0.022570	-0.957234
12419		3.931413	1.253140	8.808153	0.004231	-0.005691	-0.003996	-0.576172	-0.207031	-0.439697	-0.192639	-0.214796	-0.022647	-0.957204
12420		3.897174	1.238124	8.797026	0.002143	-0.005867	-0.004290	-0.584473	-0.208740	-0.443115	-0.192691	-0.214889	-0.022702	-0.957172
12421		3.905562	1.236853	8.784815	0.004217	-0.006182	-0.005199	-0.576660	-0.211426	-0.444580	-0.192754	-0.214995	-0.022786	-0.957133
12422		3.898161	1.223895	8.798379	0.003394	-0.005059	-0.003416	-0.575928	-0.209717	-0.449951	-0.192799	-0.215076	-0.022864	-0.957104
12423		3.915386	1.250384	8.785919	0.003005	-0.005762	-0.003069	-0.578613	-0.207764	-0.445312	-0.192840	-0.215149	-0.022931	-0.957078
12424		3.920132	1.223178	8.826258	0.000976	-0.007977	-0.003248	-0.572021	-0.206055	-0.443115	-0.192884	-0.215257	-0.022961	-0.957044
12425		3.895341	1.235156	8.814748	-0.000854	-0.007715	-0.000953	-0.563721	-0.200439	-0.441895	-0.192897	-0.215346	-0.022952	-0.957021
12426		3.903018	1.223492	8.812124	0.004072	-0.006939	-0.003469	-0.574219	-0.210693	-0.439209	-0.192912	-0.215410	-0.022997	-0.957003
12427		3.919450	1.233774	8.802070	0.005115	-0.008854	-0.005671	-0.567383	-0.207764	-0.432373	-0.192978	-0.215537	-0.023077	-0.956959
12428		3.920785	1.239048	8.824597	0.003110	-0.010332	-0.004047	-0.566895	-0.206055	-0.443604	-0.193019	-0.215680	-0.023115	-0.956918
12429		3.909921	1.237486	8.799276	0.005648	-0.011490	-0.003991	-0.579346	-0.205566	-0.440430	-0.193053	-0.215795	-0.023177	-0.956884
12430		3.918858	1.240141	8.810114	0.002112	-0.010948	-0.002934	-0.575684	-0.211182	-0.445312	-0.193071	-0.215944	-0.023181	-0.956846
12431		3.928543	1.244971	8.804463	-0.000814	-0.010494	-0.002643	-0.569824	-0.214355	-0.440186	-0.193124	-0.216049	-0.023175	-0.956812
12432		3.936753	1.232660	8.801683	-0.001002	-0.008719	0.000180	-0.567871	-0.209229	-0.443115	-0.193162	-0.216140	-0.023182	-0.956783
12433		3.904451	1.233244	8.787786	0.001223	-0.008032	-0.001865	-0.580811	-0.206787	-0.447754	-0.193196	-0.216198	-0.023199	-0.956763
12434		3.939318	1.209912	8.795520	0.003037	-0.012881	-0.001604	-0.574707	-0.199219	-0.449219	-0.193196	-0.216338	-0.023195	-0.956731
12435		3.927314	1.209135	8.810334	0.005659	-0.011245	-0.003397	-0.570557	-0.199951	-0.443848	-0.193166	-0.216421	-0.023191	-0.956719
12436		3.924962	1.239409	8.808166	0.004028	-0.012513	-0.003321	-0.578857	-0.212402	-0.437012	-0.193145	-0.216528	-0.023168	-0.956699
12437		3.913450	1.227694	8.792405	0.003040	-0.012882	-0.001606	-0.575928	-0.211426	-0.442383	-0.193172	-0.216732	-0.023193	-0.956647
12438		3.923276	1.222899	8.795869	0.001145	-0.018931	-0.000956	-0.574951	-0.197998	-0.440674	-0.193205	-0.216945	-0.023172	-0.956593
12439		3.934784	1.228189	8.789311	0.005062	-0.019017	-0.002970	-0.580078	-0.210205	-0.445312	-0.193138	-0.217157	-0.023117	-0.956559
12440		3.946653	1.240712	8.789587	0.004297	-0.020178	-0.001674	-0.570557	-0.203857	-0.442139	-0.193153	-0.217382	-0.023113	-0.956506
12441		3.950460	1.228036	8.773606	0.003214	-0.019495	-0.002477	-0.577637	-0.210693	-0.436523	-0.193155	-0.217558	-0.023074	-0.956466
12442		3.975307	1.236143	8.791049	0.002000	-0.019320	-0.000944	-0.578857	-0.207520	-0.445801	-0.193171	-0.217827	-0.023061	-0.956402
12443		3.957857	1.225859	8.786464	-0.001340	-0.016545	0.001995	-0.573242	-0.211182	-0.433350	-0.193136	-0.217971	-0.022966	-0.956378
12444		3.967633	1.213464	8.782961	0.000246	-0.016511	-0.001092	-0.579346	-0.206299	-0.432861	-0.193184	-0.218204	-0.022956	-0.956316
12445		3.983715	1.203343	8.791511	0.004116	-0.014064	-0.002020	-0.572754	-0.213379	-0.444092	-0.193146	-0.218454	-0.022949	-0.956267
12446		3.981350	1.226720	8.782264	0.005021	-0.012148	-0.005053	-0.581543	-0.202637	-0.432373	-0.193276	-0.218525	-0.023014	-0.956223
12447		3.988454	1.210078	8.812354	0.004194	-0.011270	-0.003867	-0.574219	-0.203369	-0.445801	-0.193195	-0.218760	-0.022976	-0.956186
12448		3.977834	1.218135	8.777699	0.004261	-0.004956	-0.002216	-0.584229	-0.209473	-0.441406	-0.193169	-0.218711	-0.022939	-0.956204
12449		3.991516	1.208408	8.787277	0.003193	-0.003779	-0.001813	-0.579346	-0.208496	-0.446777	-0.193143	-0.218782	-0.022938	-0.956193
12450		3.965385	1.214160	8.769336	0.002715	-0.003183	-0.003380	-0.569580	-0.199463	-0.437744	-0.193168	-0.218740	-0.022923	-0.956197
12451		3.965034	1.212405	8.785649	0.004731	-0.001211	-0.003810	-0.576904	-0.199951	-0.441162	-0.193118	-0.218693	-0.022885	-0.956219
12452		3.966212	1.230353	8.782746	0.003185	0.000562	-0.004973	-0.576660	-0.205322	-0.433350	-0.193040	-0.218638	-0.022818	-0.956249
12453		3.965224	1.211089	8.761821	0.004023	-0.000071	-0.005559	-0.574219	-0.207520	-0.440186	-0.193025	-0.218702	-0.022839	-0.956237
12454		3.978165	1.208635	8.778748	0.004263	-0.000369	-0.004776	-0.576172	-0.204102	-0.441162	-0.193078	-0.218659	-0.022866	-0.956235
12455		3.964706	1.217748	8.785058	0.003250	-0.001478	-0.004862	-0.573486	-0.197510	-0.439941	-0.193063	-0.218626	-0.022832	-0.956247
12456		3.951897	1.229560	8.774783	0.003692	0.000707	-0.001602	-0.577881	-0.202393	-0.436279	-0.192918	-0.218547	-0.022732	-0.956297
12457		3.957067	1.208768	8.782436	0.003849	-0.001813	-0.006232	-0.569336	-0.202148	-0.448486	-0.192847	-0.218602	-0.022704	-0.956299
12458		3.957486	1.210446	8.782016	0.006004	-0.003674	-0.005836	-0.582520	-0.205811	-0.443848	-0.192925	-0.218416	-0.022660	-0.956327
12459		3.965726	1.223840	8.783751	0.008095	-0.003494	-0.005554	-0.582275	-0.202148	-0.442627	-0.192863	-0.218445	-0.022681	-0.956332
12460		3.966957	1.228685	8.766601	0.005185	-0.002547	-0.004048	-0.575928	-0.198975	-0.436279	-0.192719	-0.218463	-0.022627	-0.956358
12461		3.973751	1.224774	8.771288	0.004338	-0.002162	-0.004064	-0.572754	-0.205811	-0.449219	-0.192573	-0.218499	-0.022558	-0.956381
12462		3.958816	1.214264	8.796813	0.003566	-0.003569	-0.003365	-0.573730	-0.203125	-0.434326	-0.192681	-0.218328	-0.022509	-0.956400
12463		3.972781	1.200843	8.782874	0.004164	-0.003905	-0.004735	-0.579834	-0.218262	-0.440186	-0.192638	-0.218404	-0.022501	-0.956391
12464		3.975149	1.225892	8.786419	0.005464	-0.005626	-0.004957	-0.572998	-0.211426	-0.448730	-0.192839	-0.218506	-0.022661	-0.956324
12465		3.968531	1.216006	8.783480	0.003162	-0.004768	-0.004219	-0.583252	-0.204346	-0.446289	-0.193045	-0.218361	-0.022678	-0.956315
12466		3.983292	1.216588	8.783243	0.006948	-0.005358	-0.003907	-0.571533	-0.199707	-0.439941	-0.192925	-0.218373	-0.022642	-0.956337
12467		3.970465	1.219290	8.782150	0.005004	-0.004538	-0.005323	-0.578613	-0.198730	-0.435791	-0.192866	-0.218333	-0.022571	-0.956360
12468		3.963835	1.216178	8.786287	0.002710	-0.003432	-0.003983	-0.570557	-0.212891	-0.445068	-0.192640	-0.218422	-0.022468	-0.956387
12469		3.984319	1.204326	8.784407	0.005178	-0.002795	-0.004653	-0.577393	-0.213135	-0.444580	-0.192925	-0.218289	-0.022553	-0.956358
12470		3.971085	1.213676	8.790582	0.004485	-0.001163	-0.005200	-0.576660	-0.214111	-0.444092	-0.193096	-0.218225	-0.022631	-0.956337
12471		3.957162	1.215826	8.790064	0.002346	0.001191	-0.004393	-0.578857	-0.199463	-0.447021	-0.193287	-0.218130	-0.022701	-0.956318
12472		3.970583	1.215947	8.790494	0.003194	0.000806	-0.004378	-0.579102	-0.204590	-0.442627	-0.193113	-0.217988	-0.022571	-0.956389
12473		3.962625	1.212643	8.795262	0.002896	0.003390	-0.004674	-0.576904	-0.208008	-0.442627	-0.193039	-0.217908	-0.022532	-0.956423
12474		3.975449	1.206102	8.788892	0.004197	0.001669	-0.004896	-0.580566	-0.209717	-0.444092	-0.193079	-0.217834	-0.022554	-0.956431
12475		3.976065	1.217428	8.779104	0.005499	-0.000052	-0.005117	-0.579590	-0.218262	-0.436035	-0.193104	-0.217809	-0.022599	-0.956430
12476		3.967190	1.198066	8.786463	0.005672	0.001691	-0.004447	-0.575928	-0.208008	-0.440918	-0.193283	-0.217912	-0.022798	-0.956366
12477		3.968037	1.223331	8.790620	0.006058	0.002394	-0.004798	-0.575439	-0.206055	-0.442383	-0.193308	-0.217853	-0.022845	-0.956373
12478		3.959652	1.213936	8.788434	0.006195	0.003146	-0.006534	-0.575439	-0.208740	-0.444824	-0.193321	-0.217751	-0.022867	-0.956394
12479		3.978869	1.209866	8.794068	0.007190	0.003761	-0.007654	-0.575928	-0.213623	-0.439453	-0.193412	-0.217609	-0.022934	-0.956406
12480		3.965015	1.229815	8.791078	0.007979	0.005663	-0.007153	-0.570312	-0.205811	-0.438965	-0.193569	-0.217562	-0.023098	-0.956381
12481		3.954871	1.197103	8.784909	0.005828	0.002938	-0.004982	-0.575684	-0.199463	-0.440430	-0.193595	-0.217467	-0.023125	-0.956396
12482		3.967862	1.204856	8.792474	0.005760	0.004977	-0.005098	-0.577393	-0.205078	-0.438232	-0.193398	-0.217375	-0.023053	-0.956459
12483		3.953351	1.228451	8.813179	0.006893	0.006343	-0.007955	-0.576416	-0.207520	-0.440674	-0.193331	-0.217345	-0.023090	-0.956478
12484		3.964954	1.209323	8.793173	0.008205	0.004870	-0.007574	-0.582520	-0.205078	-0.441406	-0.193339	-0.217287	-0.023163	-0.956488
12485		3.922825	1.221753	8.798868	0.010340	0.002269	-0.008981	-0.575928	-0.211182	-0.443848	-0.193208	-0.217324	-0.023211	-0.956505
12486		3.949614	1.209378	8.785592	0.010470	-0.002058	-0.009351	-0.587158	-0.213623	-0.439941	-0.193336	-0.217300	-0.023337	-0.956482
12487		3.964159	1.214456	8.768908	0.009391	-0.001131	-0.009550	-0.575439	-0.209717	-0.442871	-0.193313	-0.217476	-0.023482	-0.956443
12488		3.957284	1.233414	8.794019	0.007727	0.000631	-0.007177	-0.574951	-0.208740	-0.435059	-0.193381	-0.217418	-0.023552	-0.956441
12489		3.956725	1.235780	8.793939	0.007906	0.002623	-0.005908	-0.574463	-0.207031	-0.437256	-0.193376	-0.217468	-0.023641	-0.956428
12490		3.962235	1.232907	8.799098	0.007805	0.003668	-0.008431	-0.581055	-0.209473	-0.439453	-0.193383	-0.217454	-0.023704	-0.956428
12491		3.940666	1.241386	8.793864	0.006294	0.006677	-0.006593	-0.579102	-0.214355	-0.439209	-0.193326	-0.217450	-0.023765	-0.956439
12492		3.971484	1.202197	8.765891	0.008215	0.009944	-0.008954	-0.576416	-0.210693	-0.442383	-0.193410	-0.217402	-0.023940	-0.956429
12493		3.931203	1.271765	8.810520	0.003742	0.002751	-0.005269	-0.572510	-0.208496	-0.434326	-0.193448	-0.217337	-0.023966	-0.956435
12494		3.935211	1.233054	8.781529	0.001919	0.008094	-0.004335	-0.579590	-0.201660	-0.447510	-0.193454	-0.217292	-0.023986	-0.956444
12495		3.918210	1.211188	8.777751	0.001295	0.007685	-0.004769	-0.574219	-0.214355	-0.432861	-0.193302	-0.217094	-0.023833	-0.956523
12496		3.923973	1.209474	8.766703	0.001435	0.003607	-0.004532	-0.582031	-0.201416	-0.441650	-0.193384	-0.217169	-0.023932	-0.956487
12497		3.909814	1.222343	8.796621	0.004432	-0.003954	-0.003343	-0.581543	-0.209473	-0.446533	-0.193139	-0.217253	-0.023800	-0.956521
12498		3.944519	1.216771	8.802091	0.005667	-0.003635	-0.003679	-0.571289	-0.215576	-0.435303	-0.193077	-0.217261	-0.023790	-0.956532
12499		3.947035	1.237322	8.782127	0.001507	-0.003258	-0.002438	-0.573242	-0.203857	-0.442871	-0.193212	-0.217336	-0.023881	-0.956485
12500		3.926043	1.238400	8.809536	0.001507	-0.003259	-0.002438	-0.570801	-0.205078	-0.442871	-0.193161	-0.217277	-0.023759	-0.956512
12501		3.940113	1.217136	8.788813	-0.001139	-0.005892	-0.003035	-0.571289	-0.203857	-0.438965	-0.193186	-0.217218	-0.023626	-0.956524
12502		3.927838	1.225274	8.794646	0.002034	-0.006633	-0.002554	-0.573975	-0.211914	-0.441650	-0.193143	-0.217246	-0.023528	-0.956528
12503		3.949063	1.213272	8.792584	0.004017	-0.005654	-0.005398	-0.568848	-0.202637	-0.438965	-0.193249	-0.217270	-0.023569	-0.956500
12504		3.956954	1.223008	8.810853	0.002558	-0.005182	-0.004645	-0.580078	-0.206055	-0.447510	-0.193242	-0.217248	-0.023473	-0.956509
12505		3.958120	1.226559	8.793881	0.000108	-0.000248	-0.004144	-0.575195	-0.206787	-0.438721	-0.193166	-0.217158	-0.023360	-0.956548
12506		3.942906	1.211428	8.796354	0.002128	0.001977	-0.003982	-0.580322	-0.205566	-0.444092	-0.193127	-0.217142	-0.023331	-0.956560
12507		3.934111	1.191675	8.803844	0.005504	-0.000303	-0.005724	-0.575195	-0.213623	-0.443848	-0.193024	-0.217128	-0.023297	-0.956585
12508		3.950024	1.225654	8.798389	0.004284	-0.000125	-0.004185	-0.576172	-0.206055	-0.438721	-0.193140	-0.217072	-0.023366	-0.956572
12509		3.949670	1.219870	8.791399	0.001960	0.000231	-0.004649	-0.576904	-0.200684	-0.435791	-0.193080	-0.217087	-0.023320	-0.956582
12510		3.948367	1.211447	8.801159	0.005440	0.001985	-0.005242	-0.576172	-0.210938	-0.443604	-0.192890	-0.217134	-0.023260	-0.956611
12511		3.941960	1.221110	8.779481	0.004605	0.002866	-0.004055	-0.583740	-0.206055	-0.445312	-0.192937	-0.217053	-0.023301	-0.956619
12512		3.926455	1.220562	8.795967	0.004294	0.005199	-0.004960	-0.567139	-0.205811	-0.442383	-0.192789	-0.216994	-0.023264	-0.956663
12513		3.932091	1.217158	8.801168	0.007983	0.000586	-0.005796	-0.572021	-0.208984	-0.451172	-0.192913	-0.216858	-0.023286	-0.956669
12514		3.932321	1.222620	8.784347	0.009974	0.001814	-0.008041	-0.578613	-0.207275	-0.451172	-0.193073	-0.216635	-0.023345	-0.956685
12515		3.937747	1.224709	8.812786	0.011653	0.000300	-0.009814	-0.572266	-0.212646	-0.441650	-0.193095	-0.216511	-0.023399	-0.956708
12516		3.938079	1.237668	8.802814	0.009744	0.002356	-0.008228	-0.582764	-0.207764	-0.438477	-0.193247	-0.216454	-0.023543	-0.956686
12517		3.936069	1.223825	8.805718	0.008676	0.003781	-0.007226	-0.580078	-0.201660	-0.442139	-0.193103	-0.216537	-0.023610	-0.956695
12518		3.941013	1.214087	8.804183	0.007136	0.006042	-0.007195	-0.575928	-0.201172	-0.436279	-0.192923	-0.216486	-0.023571	-0.956744
12519		3.940551	1.233206	8.801640	0.008359	0.005862	-0.008736	-0.575684	-0.211182	-0.443848	-0.192784	-0.216486	-0.023572	-0.956772
12520		4.007019	1.228953	8.820958	0.008772	0.007565	-0.006684	-0.578613	-0.205078	-0.441895	-0.192838	-0.216366	-0.023681	-0.956785
12521		3.873098	1.234811	8.822295	0.011257	0.013779	-0.007540	-0.577148	-0.210205	-0.439697	-0.192727	-0.216232	-0.023759	-0.956836
12522		3.911540	1.217508	8.787261	0.010475	0.011872	-0.008037	-0.571777	-0.201172	-0.448486	-0.192709	-0.216150	-0.023905	-0.956855
12523		3.930557	1.232099	8.790395	0.017706	0.006228	-0.011143	-0.573975	-0.214600	-0.437256	-0.192735	-0.215943	-0.023972	-0.956895
12524		3.901385	1.245381	8.796477	0.016259	0.007199	-0.009190	-0.574219	-0.217773	-0.443359	-0.192815	-0.215949	-0.024245	-0.956870
12525		3.913120	1.241517	8.790350	0.011476	0.007411	-0.007781	-0.568604	-0.208252	-0.443604	-0.192969	-0.215857	-0.024469	-0.956854
12526		3.890438	1.240860	8.794819	0.009079	0.004730	-0.006984	-0.579346	-0.207764	-0.443115	-0.193067	-0.215712	-0.024528	-0.956866
12527		3.896121	1.244989	8.806893	0.007538	0.001918	-0.005568	-0.563232	-0.204834	-0.442627	-0.192953	-0.215720	-0.024548	-0.956886
12528		3.902945	1.251679	8.802136	0.007766	0.001125	-0.005984	-0.574219	-0.211426	-0.457031	-0.193075	-0.215570	-0.024542	-0.956896
12529		3.902589	1.253772	8.801996	0.005906	0.000392	-0.006080	-0.577637	-0.215332	-0.437744	-0.193195	-0.215342	-0.024537	-0.956923
12530		3.914994	1.245249	8.812210	0.006689	0.002300	-0.005587	-0.574707	-0.209229	-0.439209	-0.193200	-0.215428	-0.024664	-0.956899
12531		3.907690	1.238824	8.793259	0.008624	0.000994	-0.005367	-0.574219	-0.215332	-0.449463	-0.193151	-0.215468	-0.024729	-0.956899
12532		3.906453	1.238617	8.809803	0.009634	0.002108	-0.005290	-0.580322	-0.200439	-0.437012	-0.193257	-0.215352	-0.024846	-0.956900
12533		3.926008	1.242486	8.822239	0.012504	0.003955	-0.005118	-0.576660	-0.214844	-0.439453	-0.192952	-0.215439	-0.024858	-0.956942
12534		3.945368	1.243434	8.811301	0.021103	0.008994	-0.005805	-0.575195	-0.205078	-0.455078	-0.192921	-0.215439	-0.025159	-0.956940
12535		3.846387	1.241064	8.794350	0.026882	0.008890	-0.009546	-0.573486	-0.210693	-0.446533	-0.192892	-0.215195	-0.025355	-0.956996
12536		3.874260	1.272100	8.782329	0.021833	0.003065	-0.010534	-0.573486	-0.207520	-0.442627	-0.192939	-0.215129	-0.025581	-0.956995
12537		3.880265	1.285874	8.800778	0.015884	0.000916	-0.008659	-0.577148	-0.208740	-0.441650	-0.192904	-0.215125	-0.025698	-0.957000
12538		3.913712	1.282349	8.806683	0.007553	0.002164	-0.004975	-0.575684	-0.210938	-0.438721	-0.192797	-0.215140	-0.025726	-0.957018
12539		3.924204	1.250704	8.813353	0.009025	0.007262	-0.005926	-0.568848	-0.218506	-0.446533	-0.192732	-0.215126	-0.025824	-0.957031
12540		3.888231	1.260607	8.807633	0.013980	0.008798	-0.006679	-0.573730	-0.199463	-0.437256	-0.192927	-0.214944	-0.026048	-0.957026
12541		3.865857	1.270660	8.802333	0.016684	0.008646	-0.007771	-0.575195	-0.201172	-0.439453	-0.192717	-0.214917	-0.026111	-0.957073
12542		3.871975	1.293264	8.811380	0.014580	0.002630	-0.008452	-0.571289	-0.206299	-0.450684	-0.192535	-0.214942	-0.026150	-0.957103
12543		3.864764	1.287876	8.792255	0.008850	-0.000564	-0.007588	-0.567139	-0.205811	-0.439209	-0.192580	-0.214810	-0.026125	-0.957124
12544		3.897479	1.274673	8.807996	0.012721	0.001895	-0.008548	-0.578369	-0.210205	-0.443604	-0.192605	-0.214776	-0.026197	-0.957125
12545		3.884249	1.287927	8.797375	0.007244	-0.000831	-0.005092	-0.577881	-0.207764	-0.446045	-0.192490	-0.214818	-0.026224	-0.957138
12546		3.883951	1.282672	8.790364	0.004702	0.001069	-0.003344	-0.570557	-0.208008	-0.449707	-0.192356	-0.214789	-0.026183	-0.957173
12547		3.889166	1.269626	8.805296	0.007158	0.000701	-0.006425	-0.570801	-0.209961	-0.444580	-0.192423	-0.214653	-0.026163	-0.957190
12548		3.888860	1.278761	8.812008	0.006930	0.001495	-0.006012	-0.575684	-0.207520	-0.444580	-0.192463	-0.214584	-0.026187	-0.957197
12549		3.886792	1.269135	8.838368	0.011340	0.000582	-0.007067	-0.571777	-0.212158	-0.446533	-0.192376	-0.214578	-0.026240	-0.957214
12550		3.875312	1.294818	8.801101	0.010575	-0.000569	-0.005753	-0.566406	-0.212158	-0.451172	-0.192427	-0.214532	-0.026318	-0.957212
12551		3.888105	1.294201	8.817991	0.010122	0.001272	-0.004327	-0.577393	-0.212891	-0.442871	-0.192592	-0.214355	-0.026368	-0.957217
12552		3.886548	1.279826	8.820953	0.006089	0.002380	-0.004831	-0.576660	-0.202148	-0.450928	-0.192518	-0.214366	-0.026422	-0.957228
12553		3.885837	1.281968	8.820955	0.009666	0.002860	-0.003502	-0.572998	-0.207275	-0.448486	-0.192339	-0.214253	-0.026368	-0.957291
12554		3.859572	1.298731	8.793085	0.012650	-0.001642	-0.008478	-0.572510	-0.211914	-0.444580	-0.192333	-0.214208	-0.026417	-0.957301
12555		3.880866	1.309906	8.811596	0.008941	-0.007924	-0.006649	-0.570557	-0.208496	-0.434570	-0.192359	-0.214284	-0.026467	-0.957277
12556		3.874745	1.286838	8.794793	0.006223	-0.008533	-0.007360	-0.573486	-0.212646	-0.442383	-0.192315	-0.214462	-0.026488	-0.957246
12557		3.883109	1.283948	8.798807	0.007769	-0.011043	-0.007980	-0.568359	-0.210693	-0.454102	-0.192340	-0.214604	-0.026535	-0.957208
12558		3.893940	1.315176	8.796328	0.013260	-0.013384	-0.010034	-0.569824	-0.216064	-0.441406	-0.192535	-0.214589	-0.026572	-0.957171
12559		3.900898	1.280993	8.805955	0.016372	-0.011820	-0.009086	-0.573730	-0.211670	-0.446533	-0.192660	-0.214742	-0.026755	-0.957106
12560		3.889376	1.293228	8.810675	0.017396	-0.009943	-0.007215	-0.571045	-0.208496	-0.440674	-0.192660	-0.214836	-0.026883	-0.957081
12561		3.884843	1.309228	8.810929	0.011274	-0.008527	-0.006792	-0.573242	-0.215332	-0.443848	-0.192630	-0.214939	-0.026928	-0.957063
12562		3.886140	1.298391	8.796167	0.011664	-0.007572	-0.006551	-0.576904	-0.212891	-0.447510	-0.192681	-0.215021	-0.027035	-0.957031
12563		3.886810	1.292333	8.804880	0.013744	-0.008392	-0.008678	-0.570068	-0.217773	-0.443359	-0.192678	-0.215097	-0.027133	-0.957012
12564		3.902360	1.302097	8.810918	0.011522	-0.008561	-0.005406	-0.567627	-0.207275	-0.446045	-0.192799	-0.215169	-0.027251	-0.956968
12565		3.898091	1.319292	8.794849	0.006170	-0.005487	-0.005097	-0.570068	-0.212158	-0.449219	-0.192831	-0.215120	-0.027198	-0.956974
12566		3.898717	1.311507	8.803842	0.006342	-0.009054	-0.003626	-0.568848	-0.212646	-0.447998	-0.192895	-0.215107	-0.027172	-0.956965
12567		3.886336	1.303959	8.812102	0.003573	-0.011928	-0.001247	-0.566650	-0.217041	-0.444580	-0.192958	-0.215127	-0.027108	-0.956950
12568		3.910882	1.324490	8.803587	-0.000338	-0.010319	0.004396	-0.570557	-0.217773	-0.444092	-0.193051	-0.215150	-0.027037	-0.956928
12569		3.898206	1.307464	8.805498	-0.005686	-0.006991	0.005309	-0.574951	-0.212158	-0.439697	-0.193096	-0.215160	-0.026918	-0.956920
12570		3.913263	1.304973	8.805655	-0.006717	-0.003299	0.003221	-0.572754	-0.208008	-0.442383	-0.192991	-0.215200	-0.026769	-0.956936
12571		3.886314	1.297749	8.797855	-0.006588	-0.003074	0.000271	-0.569580	-0.211182	-0.441650	-0.192899	-0.215180	-0.026587	-0.956964
12572		3.907152	1.290723	8.803407	-0.005221	-0.002526	-0.003021	-0.575439	-0.219482	-0.446045	-0.192944	-0.215144	-0.026463	-0.956967
12573		3.900847	1.287351	8.791512	-0.010483	-0.000981	-0.001372	-0.571533	-0.221680	-0.445801	-0.193060	-0.215089	-0.026334	-0.956959
12574		3.900523	1.284837	8.792023	-0.013590	0.003531	-0.001330	-0.578125	-0.210693	-0.440674	-0.193271	-0.214949	-0.026198	-0.956952
12575		3.899192	1.281257	8.793137	-0.019397	0.008448	0.000409	-0.573730	-0.214844	-0.443848	-0.193187	-0.214834	-0.025924	-0.957002
12576		3.890192	1.286616	8.812950	-0.018387	0.009564	0.000478	-0.570068	-0.206787	-0.447754	-0.193239	-0.214647	-0.025694	-0.957040
12577		3.866686	1.251605	8.791273	-0.011412	0.007515	-0.000537	-0.574951	-0.214111	-0.448486	-0.193213	-0.214418	-0.025471	-0.957102
12578		3.833317	1.275308	8.766131	-0.006488	0.001727	0.003190	-0.570801	-0.208740	-0.444092	-0.193196	-0.214319	-0.025343	-0.957131
12579		3.859390	1.243329	8.796526	-0.007345	-0.010051	0.001189	-0.567139	-0.214111	-0.441406	-0.193158	-0.214368	-0.025154	-0.957133
12580		3.857170	1.263720	8.787032	-0.003601	-0.019468	0.002384	-0.574219	-0.208496	-0.439209	-0.193233	-0.214549	-0.025034	-0.957081
12581		3.904140	1.280692	8.806804	-0.010393	-0.026815	0.004469	-0.572754	-0.204102	-0.450928	-0.193119	-0.214869	-0.024771	-0.957039
12582		3.907719	1.249374	8.834135	-0.009408	-0.026967	0.001533	-0.577148	-0.207275	-0.441895	-0.193028	-0.215036	-0.024465	-0.957027
12583		3.941393	1.235105	8.802325	-0.004325	-0.025195	-0.002188	-0.582520	-0.204590	-0.446289	-0.192947	-0.215330	-0.024286	-0.956982
12584		3.954304	1.274033	8.829579	-0.001373	-0.019300	-0.000904	-0.583252	-0.213867	-0.442871	-0.192755	-0.215544	-0.024120	-0.956977
12585		3.943492	1.253200	8.807249	-0.004797	-0.012207	-0.001170	-0.569092	-0.210449	-0.439209	-0.192699	-0.215718	-0.024016	-0.956952
12586		3.951518	1.238205	8.821262	0.000914	-0.009512	-0.003258	-0.573486	-0.208496	-0.447510	-0.192775	-0.215796	-0.023972	-0.956920
12587		3.933227	1.240668	8.791379	0.004069	-0.005423	-0.004791	-0.570557	-0.211914	-0.439941	-0.192808	-0.215772	-0.023942	-0.956919
12588		3.920504	1.243019	8.790265	0.006154	-0.005733	-0.005721	-0.570312	-0.209229	-0.438232	-0.192907	-0.215822	-0.023985	-0.956887
12589		3.948948	1.250443	8.797313	0.005606	-0.002359	-0.005623	-0.571289	-0.206787	-0.441895	-0.192958	-0.215841	-0.024012	-0.956872
12590		3.927961	1.241520	8.794465	0.005994	-0.001403	-0.005381	-0.573486	-0.208740	-0.445312	-0.192966	-0.215813	-0.024017	-0.956876
12591		3.920955	1.245982	8.805693	0.006613	-0.001242	-0.005553	-0.578125	-0.207764	-0.440186	-0.192990	-0.215769	-0.024037	-0.956881
12592		3.928892	1.262046	8.790839	0.006530	0.000796	-0.005684	-0.564941	-0.202637	-0.449463	-0.192924	-0.215788	-0.024068	-0.956889
12593		3.941669	1.253868	8.800929	0.007614	-0.000378	-0.006084	-0.578125	-0.208984	-0.447510	-0.192975	-0.215621	-0.024046	-0.956917
12594		3.932936	1.234924	8.808682	0.006211	0.003375	-0.006002	-0.570801	-0.209473	-0.446533	-0.192955	-0.215535	-0.024071	-0.956940
12595		3.940347	1.258363	8.800880	0.010252	0.002272	-0.005515	-0.575195	-0.212646	-0.444336	-0.193014	-0.215432	-0.024143	-0.956949
12596		3.939096	1.254712	8.794086	0.015125	0.006110	-0.005821	-0.573486	-0.207031	-0.445068	-0.193049	-0.215357	-0.024313	-0.956955
12597		3.937363	1.258286	8.794352	0.012334	0.008043	-0.005453	-0.570312	-0.199463	-0.444336	-0.193011	-0.215224	-0.024412	-0.956990
12598		3.906753	1.253547	8.803935	0.012994	0.010469	-0.008708	-0.580078	-0.211182	-0.444824	-0.192913	-0.215037	-0.024485	-0.957050
12599		3.906018	1.275975	8.784683	0.009134	0.008001	-0.007732	-0.564697	-0.205811	-0.445801	-0.192889	-0.214958	-0.024584	-0.957070
12600		3.895670	1.247264	8.802763	0.002259	0.002434	-0.006362	-0.579590	-0.204834	-0.441162	-0.192980	-0.214804	-0.024536	-0.957087
12601		3.915951	1.238245	8.784895	0.002957	0.000303	-0.007003	-0.575439	-0.207031	-0.448242	-0.192845	-0.214829	-0.024511	-0.957110
12602		3.888925	1.261704	8.804239	0.001910	-0.003079	-0.003989	-0.566162	-0.214355	-0.443115	-0.192801	-0.214796	-0.024448	-0.957127
12603		3.916232	1.251788	8.814613	0.002896	-0.002978	-0.006323	-0.568115	-0.214600	-0.437744	-0.193010	-0.214763	-0.024458	-0.957092
12604		3.904160	1.270710	8.810492	0.006159	-0.006245	-0.006918	-0.571289	-0.214355	-0.447021	-0.193171	-0.214845	-0.024517	-0.957040
12605		3.926418	1.262588	8.791612	0.007341	-0.008948	-0.005983	-0.574707	-0.210938	-0.437256	-0.193304	-0.214890	-0.024556	-0.957002
12606		3.913288	1.262786	8.807029	0.006316	-0.004494	-0.006265	-0.575928	-0.218750	-0.437988	-0.193309	-0.214994	-0.024598	-0.956977
12607		3.926679	1.254241	8.816946	0.004299	-0.000394	-0.004813	-0.571777	-0.207764	-0.443115	-0.193423	-0.215056	-0.024666	-0.956938
12608		3.906267	1.261220	8.811252	0.001966	-0.000054	-0.005271	-0.574463	-0.212402	-0.448242	-0.193421	-0.215010	-0.024628	-0.956950
12609		3.906931	1.264368	8.794445	0.000222	-0.001304	-0.001616	-0.574707	-0.212646	-0.443848	-0.193443	-0.214953	-0.024574	-0.956959
12610		3.914454	1.269029	8.789554	-0.000648	-0.001689	-0.003434	-0.575195	-0.209229	-0.444824	-0.193481	-0.214943	-0.024524	-0.956955
12611		3.907288	1.258069	8.787330	0.002062	-0.001582	-0.003936	-0.571045	-0.214844	-0.443604	-0.193457	-0.214928	-0.024488	-0.956964
12612		3.907633	1.259151	8.787022	0.003763	-0.002849	-0.005109	-0.584229	-0.208984	-0.449707	-0.193579	-0.214924	-0.024506	-0.956940
12613		3.907628	1.257654	8.803302	0.002390	-0.003906	-0.003014	-0.571289	-0.209717	-0.442627	-0.193462	-0.214952	-0.024453	-0.956959
12614		3.914641	1.239673	8.794375	0.005096	-0.004053	-0.004118	-0.565674	-0.208740	-0.438232	-0.193478	-0.214969	-0.024454	-0.956952
12615		3.914955	1.238864	8.810422	0.007038	-0.005606	-0.004503	-0.569824	-0.213623	-0.439453	-0.193527	-0.215012	-0.024479	-0.956932
12616		3.923904	1.254454	8.795113	0.003870	-0.003868	-0.002572	-0.570557	-0.204590	-0.448975	-0.193602	-0.215050	-0.024488	-0.956908
12617		3.916774	1.262763	8.829759	0.004773	-0.001476	-0.004441	-0.573975	-0.209229	-0.447266	-0.193554	-0.214960	-0.024452	-0.956938
12618		3.931070	1.251842	8.799630	0.002686	-0.001167	-0.003509	-0.583984	-0.212646	-0.439941	-0.193543	-0.214910	-0.024417	-0.956953
12619		3.910071	1.242182	8.796948	0.005020	-0.001506	-0.003052	-0.575684	-0.209473	-0.449463	-0.193461	-0.215011	-0.024444	-0.956946
12620		3.909999	1.243640	8.796774	0.005314	0.001234	-0.003546	-0.579102	-0.204102	-0.438232	-0.193438	-0.214929	-0.024443	-0.956969
12621		3.908728	1.235728	8.806698	0.006073	0.002383	-0.004868	-0.562744	-0.210938	-0.448975	-0.193281	-0.214954	-0.024454	-0.956995
12622		3.922803	1.260772	8.810772	0.007924	0.002614	-0.005988	-0.572998	-0.205322	-0.442627	-0.193443	-0.214787	-0.024499	-0.956999
12623		3.928421	1.258427	8.815947	0.011641	0.003842	-0.006425	-0.569824	-0.214111	-0.449463	-0.193376	-0.214732	-0.024581	-0.957022
12624		3.913106	1.255344	8.808910	0.012559	0.006999	-0.006494	-0.566406	-0.212402	-0.442383	-0.193500	-0.214573	-0.024711	-0.957030
12625		3.897490	1.259587	8.808797	0.014421	0.007740	-0.006413	-0.574463	-0.213135	-0.442627	-0.193602	-0.214452	-0.024870	-0.957032
12626		3.909469	1.269928	8.816275	0.014790	0.007675	-0.008579	-0.578125	-0.212402	-0.443848	-0.193656	-0.214384	-0.025042	-0.957032
12627		3.873468	1.272566	8.803804	0.008609	0.006309	-0.006249	-0.571045	-0.205078	-0.441895	-0.193649	-0.214331	-0.025125	-0.957043
12628		3.912281	1.256532	8.808620	0.007267	0.007000	-0.008444	-0.572021	-0.209229	-0.441406	-0.193613	-0.214227	-0.025166	-0.957072
12629		3.876166	1.258650	8.796267	0.009494	0.007421	-0.011127	-0.575928	-0.219238	-0.451172	-0.193658	-0.214141	-0.025264	-0.957080
12630		3.923473	1.285179	8.813409	0.008221	0.005095	-0.007091	-0.568604	-0.207764	-0.445801	-0.193797	-0.214036	-0.025360	-0.957073
12631		3.893261	1.265613	8.809305	0.011477	0.008171	-0.006104	-0.569824	-0.213379	-0.450684	-0.193786	-0.213888	-0.025453	-0.957106
12632		3.871915	1.276816	8.787277	0.010566	0.005269	-0.005432	-0.575928	-0.212646	-0.445801	-0.193857	-0.213748	-0.025543	-0.957120
12633		3.889802	1.282596	8.840113	0.007002	0.005793	-0.004344	-0.580322	-0.209717	-0.438232	-0.193844	-0.213675	-0.025595	-0.957138
12634		3.895711	1.267997	8.815223	0.008425	0.002555	-0.003212	-0.572266	-0.210938	-0.440186	-0.193712	-0.213735	-0.025655	-0.957149
12635		3.888416	1.282565	8.816823	0.010428	0.004282	-0.004283	-0.578857	-0.207275	-0.443115	-0.193682	-0.213713	-0.025747	-0.957158
12636		3.880853	1.290099	8.811726	0.008575	0.004052	-0.003163	-0.573730	-0.214844	-0.440918	-0.193532	-0.213699	-0.025791	-0.957190
12637		3.892728	1.267967	8.808726	0.007956	0.003889	-0.002991	-0.568848	-0.211670	-0.448486	-0.193534	-0.213685	-0.025868	-0.957191
12638		3.885412	1.282258	8.810364	0.008809	0.003256	-0.003576	-0.572754	-0.211182	-0.439697	-0.193560	-0.213581	-0.025921	-0.957207
12639		3.891083	1.280149	8.815510	0.014235	0.003217	-0.005184	-0.572266	-0.211914	-0.443848	-0.193523	-0.213590	-0.026061	-0.957209
12640		3.868357	1.263802	8.822826	0.017803	0.002692	-0.006274	-0.565186	-0.202637	-0.447510	-0.193514	-0.213576	-0.026239	-0.957209
12641		3.895209	1.267633	8.823304	0.022233	0.002046	-0.006748	-0.575684	-0.216309	-0.443604	-0.193436	-0.213493	-0.026415	-0.957239
12642		3.860601	1.282061	8.800169	0.022430	0.006050	-0.009198	-0.569336	-0.201904	-0.448242	-0.193470	-0.213478	-0.026686	-0.957227
12643		3.847724	1.327590	8.799660	0.012449	-0.001108	-0.008732	-0.572510	-0.216064	-0.440674	-0.193388	-0.213426	-0.026737	-0.957254
12644		3.860697	1.298805	8.789407	0.004403	-0.002701	-0.005276	-0.574463	-0.215332	-0.447754	-0.193438	-0.213479	-0.026764	-0.957232
12645		3.873495	1.287531	8.816204	0.002930	-0.002230	-0.004518	-0.570068	-0.223877	-0.442627	-0.193471	-0.213474	-0.026753	-0.957226
12646		3.876249	1.323898	8.792663	0.000693	-0.003160	-0.003034	-0.570801	-0.211182	-0.442139	-0.193643	-0.213504	-0.026758	-0.957185
12647		3.887982	1.280602	8.809454	-0.002963	-0.000342	-0.001486	-0.582031	-0.216553	-0.441406	-0.193618	-0.213482	-0.026663	-0.957197
12648		3.867121	1.276320	8.813763	-0.002494	-0.001935	-0.002308	-0.562256	-0.199951	-0.440918	-0.193577	-0.213559	-0.026602	-0.957190
12649		3.874768	1.274020	8.801997	0.002789	-0.003213	-0.003365	-0.575684	-0.209961	-0.444824	-0.193484	-0.213529	-0.026522	-0.957218
12650		3.882797	1.308029	8.823808	0.005652	-0.001605	-0.003823	-0.580078	-0.207520	-0.441406	-0.193413	-0.213546	-0.026526	-0.957228
12651		3.868366	1.279518	8.812753	0.005264	-0.002821	-0.004661	-0.566650	-0.214844	-0.435791	-0.193270	-0.213626	-0.026524	-0.957239
12652		3.884013	1.299787	8.792764	0.007123	-0.002334	-0.005183	-0.571777	-0.210693	-0.450684	-0.193338	-0.213682	-0.026587	-0.957211
12653		3.876407	1.294591	8.813890	0.004173	-0.001648	-0.004267	-0.574219	-0.209473	-0.444580	-0.193344	-0.213626	-0.026562	-0.957223
12654		3.876589	1.288840	8.806843	0.004414	-0.001930	-0.003476	-0.572266	-0.213623	-0.448730	-0.193280	-0.213635	-0.026548	-0.957235
12655		3.863127	1.290621	8.806087	0.002932	-0.002230	-0.004520	-0.575928	-0.209961	-0.443604	-0.193320	-0.213606	-0.026527	-0.957234
12656		3.870605	1.295919	8.801087	0.001223	-0.000962	-0.003350	-0.563965	-0.208496	-0.443604	-0.193250	-0.213615	-0.026483	-0.957247
12657		3.883930	1.286630	8.811289	0.003176	-0.002255	-0.003129	-0.570801	-0.203613	-0.443359	-0.193276	-0.213575	-0.026443	-0.957252
12658		3.870025	1.293126	8.833939	0.004403	-0.002960	-0.005879	-0.572266	-0.211182	-0.447266	-0.193197	-0.213579	-0.026408	-0.957268
12659		3.857450	1.290363	8.809560	0.003265	-0.004549	-0.003587	-0.577148	-0.217529	-0.450439	-0.193192	-0.213588	-0.026376	-0.957268
12660		3.877853	1.276057	8.824741	0.000689	-0.003677	-0.004235	-0.578369	-0.209473	-0.440918	-0.193241	-0.213591	-0.026343	-0.957258
12661		3.879883	1.295607	8.804399	0.000451	-0.003138	-0.004425	-0.572510	-0.209961	-0.446045	-0.193148	-0.213656	-0.026296	-0.957264
12662		3.886127	1.281816	8.819319	0.002939	-0.001716	-0.003320	-0.566162	-0.213379	-0.442139	-0.193121	-0.213639	-0.026264	-0.957274
12663		3.879873	1.280470	8.807111	0.000458	-0.002623	-0.003224	-0.567871	-0.211426	-0.444580	-0.193195	-0.213628	-0.026219	-0.957263
12664		3.872854	1.276387	8.811739	0.000369	-0.000329	-0.002766	-0.571533	-0.212646	-0.441895	-0.193229	-0.213577	-0.026164	-0.957268
12665		3.880502	1.296020	8.820164	0.006131	-0.002682	-0.003448	-0.571289	-0.214844	-0.442871	-0.193225	-0.213611	-0.026190	-0.957261
12666		3.886397	1.276474	8.828287	0.007161	-0.000345	-0.008887	-0.563965	-0.204346	-0.445312	-0.193316	-0.213612	-0.026255	-0.957241
12667		3.866808	1.287016	8.805492	0.009462	-0.002923	-0.005331	-0.571777	-0.216797	-0.448242	-0.193306	-0.213577	-0.026275	-0.957250
12668		3.860733	1.301431	8.806494	0.007130	-0.002076	-0.004588	-0.568848	-0.208496	-0.449463	-0.193383	-0.213564	-0.026318	-0.957236
12669		3.880685	1.280829	8.815013	0.003173	-0.002771	-0.004332	-0.567627	-0.213867	-0.448242	-0.193390	-0.213514	-0.026274	-0.957247
12670		3.866524	1.272811	8.824318	0.001218	-0.001480	-0.004553	-0.571289	-0.210205	-0.446289	-0.193485	-0.213455	-0.026232	-0.957242
12671		3.874829	1.280250	8.802519	0.000073	-0.003842	-0.004060	-0.576416	-0.210205	-0.448975	-0.193485	-0.213451	-0.026163	-0.957245
12672		3.882945	1.292113	8.804056	-0.001172	-0.004683	-0.004913	-0.575684	-0.206787	-0.446533	-0.193459	-0.213461	-0.026079	-0.957250
12673		3.848947	1.289234	8.807572	0.000684	-0.004453	-0.006037	-0.566406	-0.218506	-0.447998	-0.193395	-0.213481	-0.026014	-0.957260
12674		3.870026	1.270477	8.799221	0.003261	-0.005323	-0.005391	-0.570068	-0.218994	-0.446777	-0.193574	-0.213476	-0.026006	-0.957226
12675		3.864361	1.288006	8.823493	-0.000358	-0.008079	-0.003599	-0.580322	-0.211426	-0.435791	-0.193707	-0.213525	-0.025950	-0.957189
12676		3.844991	1.263315	8.806802	0.000103	-0.010705	-0.006824	-0.573242	-0.218262	-0.446533	-0.193655	-0.213728	-0.025905	-0.957156
12677		3.869496	1.284183	8.797887	-0.001943	-0.015711	-0.005049	-0.575684	-0.205078	-0.440186	-0.193769	-0.213877	-0.025817	-0.957102
12678		3.872974	1.297800	8.809960	-0.007618	-0.015915	-0.005421	-0.577393	-0.208008	-0.450684	-0.193698	-0.214054	-0.025627	-0.957082
12679		3.882787	1.283842	8.807241	-0.013041	-0.015627	-0.003201	-0.563965	-0.209717	-0.442627	-0.193670	-0.214149	-0.025358	-0.957073
12680		3.886189	1.273494	8.799449	-0.017739	-0.016440	0.000789	-0.566650	-0.211182	-0.441895	-0.193734	-0.214236	-0.025032	-0.957049
12681		3.928914	1.240696	8.829524	-0.007218	-0.013925	-0.002789	-0.568359	-0.209229	-0.443848	-0.193808	-0.214337	-0.024859	-0.957016
12682		3.925566	1.255445	8.813159	0.005161	-0.010661	-0.006292	-0.568848	-0.212646	-0.439453	-0.193857	-0.214418	-0.024841	-0.956989
12683		3.921488	1.271712	8.796899	0.005695	-0.007688	-0.004806	-0.574463	-0.208740	-0.450195	-0.193916	-0.214504	-0.024853	-0.956957
12684		3.921971	1.263914	8.806151	0.005746	-0.003894	-0.004300	-0.565186	-0.209229	-0.450928	-0.193891	-0.214489	-0.024844	-0.956966
12685		3.900696	1.245294	8.813377	0.007749	-0.001648	-0.004178	-0.576172	-0.204834	-0.453369	-0.193951	-0.214401	-0.024856	-0.956973
12686		3.887907	1.264334	8.809331	0.005647	-0.002115	-0.005043	-0.583008	-0.208252	-0.439453	-0.193870	-0.214345	-0.024837	-0.957002
12687		3.875212	1.268807	8.791763	0.003644	-0.004362	-0.005165	-0.574951	-0.211426	-0.443115	-0.193744	-0.214450	-0.024834	-0.957004
12688		3.896277	1.255364	8.806515	0.006171	-0.009282	-0.005631	-0.569824	-0.208496	-0.444824	-0.193748	-0.214557	-0.024845	-0.956979
12689		3.892360	1.271767	8.790149	0.006029	-0.010781	-0.005679	-0.575195	-0.209229	-0.443848	-0.193771	-0.214639	-0.024831	-0.956957
12690		3.902027	1.292196	8.797511	0.004786	-0.011625	-0.006530	-0.576416	-0.208496	-0.442383	-0.193762	-0.214761	-0.024814	-0.956932
12691		3.903072	1.267310	8.809575	0.000837	-0.011809	-0.005064	-0.578369	-0.206055	-0.443115	-0.193721	-0.214889	-0.024747	-0.956913
12692		3.885217	1.273148	8.802870	-0.001386	-0.012227	-0.002369	-0.575439	-0.209473	-0.445557	-0.193607	-0.215017	-0.024639	-0.956910
12693		3.962131	1.242198	8.805385	0.000879	-0.008531	-0.005762	-0.583496	-0.204590	-0.446045	-0.193612	-0.215077	-0.024577	-0.956897
12694		3.937014	1.270770	8.790657	0.007604	-0.003404	-0.004835	-0.572510	-0.208984	-0.445557	-0.193447	-0.215120	-0.024600	-0.956920
12695		3.916455	1.276216	8.801367	0.008740	-0.001298	-0.005931	-0.574219	-0.211426	-0.446045	-0.193461	-0.215098	-0.024644	-0.956921
12696		3.929335	1.261965	8.804696	0.011983	0.001535	-0.005563	-0.572510	-0.209229	-0.445068	-0.193472	-0.215057	-0.024741	-0.956926
12697		3.929306	1.279914	8.817684	0.018249	-0.000853	-0.003483	-0.568604	-0.213135	-0.447021	-0.193428	-0.215057	-0.024895	-0.956931
12698		3.921434	1.259148	8.801830	0.021746	0.002650	-0.008434	-0.575928	-0.216309	-0.437988	-0.193530	-0.214996	-0.025113	-0.956918
12699		3.888292	1.320055	8.785697	0.018318	0.004666	-0.007286	-0.574707	-0.202148	-0.441162	-0.193546	-0.215003	-0.025332	-0.956908
12700		3.926731	1.281848	8.786823	0.008595	0.006827	-0.005117	-0.571533	-0.208496	-0.440674	-0.193408	-0.214914	-0.025385	-0.956954
12701		3.916993	1.277491	8.808935	0.009497	0.009988	-0.005204	-0.572754	-0.207520	-0.440674	-0.193377	-0.214788	-0.025472	-0.956986
12702		3.894606	1.302073	8.800871	0.009165	0.013081	-0.004338	-0.578613	-0.206787	-0.448242	-0.193306	-0.214630	-0.025559	-0.957034
12703		3.884214	1.278592	8.786561	0.007056	0.012091	-0.006403	-0.575195	-0.212402	-0.442383	-0.193224	-0.214454	-0.025614	-0.957088
12704		3.888429	1.275917	8.792481	0.007001	0.007259	-0.009307	-0.563232	-0.212402	-0.433594	-0.193252	-0.214369	-0.025692	-0.957100
12705		3.831977	1.279716	8.791288	0.003361	0.002260	-0.004398	-0.582520	-0.210938	-0.447021	-0.193327	-0.214342	-0.025701	-0.957090
12706		3.879496	1.257724	8.800704	0.002035	-0.005657	-0.005045	-0.576172	-0.211670	-0.444092	-0.193241	-0.214402	-0.025672	-0.957095
12707		3.896037	1.291462	8.793622	0.003858	-0.008184	-0.004272	-0.569824	-0.210938	-0.453125	-0.193208	-0.214488	-0.025656	-0.957083
12708		3.898554	1.316333	8.796019	0.002612	-0.009290	-0.005722	-0.573242	-0.216797	-0.444824	-0.193308	-0.214495	-0.025588	-0.957063
12709		3.919759	1.295152	8.804145	0.000800	-0.005726	-0.004092	-0.569336	-0.218750	-0.452393	-0.193378	-0.214532	-0.025547	-0.957041
12710		3.913078	1.284084	8.801947	0.000362	-0.000854	-0.003972	-0.572754	-0.218506	-0.441650	-0.193546	-0.214446	-0.025492	-0.957028
12711		3.905775	1.280575	8.806691	0.004699	0.000551	-0.004608	-0.573242	-0.214111	-0.447021	-0.193625	-0.214439	-0.025524	-0.957013
12712		3.891667	1.296921	8.819686	0.005209	0.001973	-0.006733	-0.573730	-0.214111	-0.445557	-0.193690	-0.214377	-0.025549	-0.957013
12713		3.883468	1.270840	8.820992	0.008134	-0.001465	-0.005757	-0.569580	-0.215332	-0.440186	-0.193724	-0.214376	-0.025601	-0.957005
12714		3.892365	1.305545	8.785774	0.003837	0.000665	-0.005223	-0.577393	-0.211182	-0.444824	-0.193799	-0.214358	-0.025613	-0.956994
12715		3.897480	1.282800	8.811043	0.001736	0.000452	-0.005484	-0.575195	-0.214600	-0.447754	-0.193774	-0.214335	-0.025592	-0.957004
12716		3.890737	1.274138	8.792363	0.000231	-0.001576	-0.002213	-0.573486	-0.208984	-0.441162	-0.193784	-0.214311	-0.025538	-0.957009
12717		3.856510	1.271142	8.796155	0.002672	-0.004197	-0.002218	-0.573730	-0.206299	-0.446777	-0.193719	-0.214352	-0.025505	-0.957014
12718		3.891904	1.266342	8.801396	0.004240	-0.007743	-0.005240	-0.573486	-0.209229	-0.443359	-0.193673	-0.214399	-0.025473	-0.957013
12719		3.893680	1.288938	8.820600	0.003005	-0.007811	-0.004286	-0.572266	-0.215576	-0.442139	-0.193645	-0.214469	-0.025437	-0.957005
12720		3.923055	1.284405	8.797110	0.004388	-0.005465	-0.003394	-0.561523	-0.205078	-0.439697	-0.193682	-0.214524	-0.025437	-0.956985
12721		3.902126	1.272618	8.811129	0.007765	-0.001387	-0.003592	-0.570068	-0.207520	-0.445068	-0.193687	-0.214493	-0.025453	-0.956990
12722		3.902063	1.281608	8.817606	0.006811	0.001803	-0.001949	-0.574219	-0.205078	-0.442383	-0.193636	-0.214428	-0.025467	-0.957015
12723		3.915850	1.292275	8.807921	0.005214	0.002491	-0.005537	-0.572754	-0.200195	-0.439453	-0.193552	-0.214382	-0.025482	-0.957042
12724		3.892803	1.264359	8.825906	0.009176	0.003456	-0.005208	-0.570312	-0.208008	-0.445801	-0.193396	-0.214340	-0.025540	-0.957081
12725		3.899647	1.280963	8.811017	0.010659	0.003506	-0.004772	-0.576172	-0.212891	-0.445068	-0.193377	-0.214262	-0.025612	-0.957100
12726		3.892120	1.274516	8.792374	0.010275	0.002024	-0.006208	-0.573486	-0.208008	-0.447266	-0.193366	-0.214237	-0.025703	-0.957106
12727		3.905223	1.290648	8.806121	0.006218	0.003875	-0.004882	-0.576172	-0.209717	-0.438477	-0.193330	-0.214150	-0.025726	-0.957132
12728		3.897103	1.295512	8.817768	0.008933	0.003472	-0.006603	-0.578613	-0.203125	-0.448975	-0.193256	-0.214141	-0.025816	-0.957146
12729		3.902188	1.278952	8.809859	0.010705	0.007822	-0.003078	-0.568604	-0.208740	-0.439453	-0.193080	-0.214023	-0.025893	-0.957206
12730		3.893259	1.284315	8.821790	0.011569	0.007709	-0.002465	-0.574707	-0.211670	-0.446045	-0.193023	-0.213934	-0.025996	-0.957235
12731		3.911863	1.282387	8.827671	0.017007	0.007684	-0.004104	-0.572021	-0.202637	-0.446045	-0.192964	-0.213848	-0.026170	-0.957261
12732		3.914952	1.267882	8.836570	0.041572	0.016858	-0.006589	-0.568604	-0.208252	-0.438232	-0.192794	-0.213688	-0.026642	-0.957318
12733		3.917190	1.272619	8.858538	0.059497	0.015573	-0.009128	-0.567627	-0.218750	-0.440430	-0.192662	-0.213627	-0.027358	-0.957338
12734		3.845862	1.303346	8.812646	0.064242	0.017933	-0.009560	-0.574951	-0.211914	-0.447266	-0.192653	-0.213546	-0.028149	-0.957335
12735		3.852627	1.381599	8.770099	0.042298	0.010910	-0.007744	-0.567627	-0.210938	-0.445068	-0.192544	-0.213475	-0.028639	-0.957358
12736		3.914254	1.326507	8.826239	0.045135	0.020578	-0.011029	-0.578613	-0.208252	-0.443115	-0.192521	-0.213277	-0.029181	-0.957391
12737		3.867015	1.360096	8.862083	0.062024	0.024780	-0.011499	-0.564209	-0.212891	-0.444580	-0.192273	-0.213122	-0.029963	-0.957451
12738		3.922347	1.357725	8.839554	0.075895	0.034442	-0.013139	-0.569092	-0.219482	-0.450195	-0.192232	-0.212825	-0.030908	-0.957495
12739		3.847474	1.451405	8.814405	0.062135	0.044090	-0.005027	-0.578613	-0.224609	-0.444580	-0.192151	-0.212379	-0.031699	-0.957585
12740		3.854634	1.398641	8.843939	0.039068	0.052464	0.000232	-0.569092	-0.213379	-0.446777	-0.191958	-0.211860	-0.032271	-0.957719
12741		3.786448	1.506970	8.779058	0.016878	0.052956	0.009522	-0.565186	-0.224854	-0.446045	-0.191702	-0.211225	-0.032504	-0.957903
12742		3.696824	1.362904	8.767704	-0.002855	0.038037	0.010881	-0.564453	-0.208008	-0.450928	-0.191646	-0.210733	-0.032481	-0.958023
12743		3.879574	1.239881	8.938573	0.038687	0.033723	-0.002885	-0.571289	-0.217285	-0.443115	-0.191489	-0.210338	-0.032938	-0.958126
12744		3.883259	1.423570	8.899681	0.079550	0.052993	-0.017670	-0.573486	-0.216309	-0.443848	-0.191366	-0.209891	-0.034024	-0.958210
12745		3.893511	1.412472	8.951412	0.079720	0.072132	-0.019801	-0.572510	-0.221924	-0.459717	-0.191205	-0.209219	-0.035166	-0.958348
12746		3.888557	1.418275	8.887690	0.103904	0.111901	-0.010895	-0.566162	-0.223145	-0.454346	-0.190987	-0.208052	-0.036635	-0.958591
12747		3.760577	1.520501	8.805893	0.090261	0.167695	0.026471	-0.558350	-0.218994	-0.456299	-0.190356	-0.206217	-0.037982	-0.959060
12748		3.374895	1.793269	8.570702	-0.016902	0.153692	0.106340	-0.556641	-0.219971	-0.457520	-0.189075	-0.204302	-0.037781	-0.959731
12749		3.280573	1.815761	8.581956	-0.171777	0.095593	0.180673	-0.566162	-0.214355	-0.458496	-0.187349	-0.202759	-0.035405	-0.960487
12750		3.360239	1.480303	8.660111	-0.295785	0.019198	0.241709	-0.564941	-0.212891	-0.459229	-0.185098	-0.201910	-0.031233	-0.961247
12751		3.378347	1.172953	8.745673	-0.355744	-0.041907	0.264797	-0.563965	-0.196777	-0.462158	-0.182817	-0.201664	-0.026151	-0.961886
12752		3.365731	1.213991	8.721638	-0.407047	-0.131929	0.264336	-0.561768	-0.192383	-0.462646	-0.180648	-0.202345	-0.020218	-0.962296
12753		3.464218	0.943691	8.769120	-0.441631	-0.176182	0.251527	-0.567871	-0.173096	-0.458496	-0.178822	-0.203450	-0.013800	-0.962518
12754		3.772709	0.904916	8.909626	-0.452748	-0.189016	0.248906	-0.578369	-0.177490	-0.464600	-0.176882	-0.204696	-0.007220	-0.962684
12755		4.031682	0.748298	8.954499	-0.460546	-0.137376	0.234012	-0.584717	-0.158936	-0.462402	-0.175230	-0.205299	-0.000724	-0.962884
12756		3.987137	0.208832	9.053438	-0.378901	-0.077134	0.182558	-0.571533	-0.158691	-0.461426	-0.173829	-0.205367	0.004534	-0.963113
12757		3.422699	0.389414	8.948445	-0.199858	-0.101614	0.108852	-0.575439	-0.153320	-0.459961	-0.173072	-0.206071	0.007512	-0.963081
12758		3.664107	0.606544	8.850483	-0.149748	-0.147546	0.099387	-0.576416	-0.150879	-0.463379	-0.172248	-0.207449	0.009958	-0.962911
12759		4.488541	0.290050	9.029648	-0.102391	-0.099284	0.063420	-0.576660	-0.138672	-0.457275	-0.171774	-0.208317	0.011643	-0.962789
12760		4.164325	0.454930	8.920081	-0.056984	-0.049814	0.048404	-0.571289	-0.141846	-0.457764	-0.171240	-0.208705	0.012647	-0.962787
12761		3.841641	0.521908	8.923802	-0.050004	-0.091641	0.070961	-0.593262	-0.138428	-0.454590	-0.170521	-0.209580	0.013715	-0.962710
12762		3.673181	0.630768	9.032124	-0.056375	-0.223728	0.087072	-0.588135	-0.139160	-0.461914	-0.169390	-0.212128	0.015159	-0.962330
12763		3.015918	0.904961	9.410782	-0.096363	-0.519809	0.122062	-0.592041	-0.130859	-0.448242	-0.168021	-0.218047	0.017814	-0.961201
12764		1.902682	1.226367	10.501167	-0.064836	-1.247882	0.251704	-0.609619	-0.131104	-0.424805	-0.164745	-0.232740	0.021967	-0.958232
12765		1.654858	-1.257503	11.690051	0.030838	-2.638927	0.078070	-0.637939	-0.132812	-0.382324	-0.162786	-0.264225	0.027292	-0.950232
12766		2.676860	-1.849908	11.002021	0.304657	-4.168782	-0.333177	-0.669678	-0.147217	-0.303467	-0.163995	-0.314070	0.031060	-0.934613
12767		4.966746	-0.005445	9.299069	0.589322	-5.027475	-0.472316	-0.699707	-0.159424	-0.207520	-0.164908	-0.373570	0.032615	-0.912243
12768		12.712277	0.496898	8.707885	1.059273	-4.497521	-0.347807	-0.712158	-0.172119	-0.117432	-0.161808	-0.426652	0.028185	-0.889377
12769		15.165827	-0.105466	3.196780	0.888034	-2.254693	-0.113450	-0.722412	-0.177979	-0.068115	-0.157528	-0.453557	0.022343	-0.876911
12770		9.895411	-1.638293	2.419841	0.394188	0.409966	0.673688	-0.724854	-0.165283	-0.070557	-0.148085	-0.449884	0.021154	-0.880470
12771		4.035331	1.697164	-2.310419	0.611993	0.983679	1.578353	-0.733643	-0.133789	-0.091553	-0.127551	-0.439856	0.021621	-0.888701
12772		-0.307670	6.043032	-3.775173	0.506765	0.198230	-0.161985	-0.730957	-0.147461	-0.090820	-0.126605	-0.438582	0.014908	-0.889604
12773		0.413783	-1.898811	-1.197301	-0.093385	-0.606539	-0.509104	-0.735107	-0.155762	-0.081787	-0.132715	-0.445294	0.014225	-0.885380
12774		17.651475	2.479276	5.128456	-0.344823	0.875809	-0.006149	-0.720215	-0.148926	-0.104004	-0.134864	-0.434998	0.016655	-0.890118
12775		13.542913	3.207263	11.143210	-0.195614	3.548880	0.123594	-0.711670	-0.139160	-0.172119	-0.135145	-0.394713	0.013590	-0.908709
12776		6.300207	-0.347665	9.500602	-0.144702	3.549495	0.240986	-0.695801	-0.137695	-0.245850	-0.133527	-0.353698	0.010472	-0.925721
12777		3.969736	-2.878548	9.495471	0.212172	2.863065	-0.345059	-0.673096	-0.139893	-0.289795	-0.136826	-0.320691	0.001771	-0.937248
12778		3.542914	0.968105	10.188681	0.541772	1.742211	-0.679010	-0.652588	-0.158936	-0.318604	-0.142560	-0.301086	-0.010200	-0.942826
12779		3.570170	4.247798	9.963442	0.109028	0.898924	-0.107827	-0.656738	-0.163574	-0.337891	-0.143274	-0.290606	-0.013412	-0.945960
12780		4.551472	1.750778	8.237638	-0.191374	0.571297	0.294660	-0.650635	-0.150635	-0.342773	-0.140335	-0.283502	-0.011042	-0.948584
12781		4.982306	1.382743	8.152662	-0.342893	0.471449	0.302809	-0.648926	-0.145996	-0.357178	-0.137810	-0.277304	-0.006682	-0.950824
12782		5.141008	0.629407	8.202920	-0.402659	0.406269	0.206361	-0.639404	-0.143555	-0.370361	-0.136648	-0.271746	-0.001833	-0.952616
12783		4.609842	0.015507	8.748279	-0.265154	0.287568	0.042967	-0.636230	-0.133545	-0.369141	-0.136988	-0.267814	0.001033	-0.953682
12784		3.983587	0.417787	8.936368	-0.166037	-0.020634	0.002294	-0.636963	-0.135254	-0.369629	-0.137448	-0.267731	0.003104	-0.953634
12785		3.035938	1.099045	9.642863	-0.181522	-0.622473	0.054124	-0.648682	-0.118652	-0.358643	-0.137334	-0.274786	0.006575	-0.951624
12786		2.147575	1.342199	11.184828	-0.207596	-1.791141	0.185196	-0.655518	-0.122559	-0.323730	-0.135528	-0.295605	0.012768	-0.945562
12787		2.829803	0.144114	11.032030	-0.192730	-3.294343	0.093945	-0.687256	-0.116699	-0.272705	-0.134420	-0.333898	0.021003	-0.932739
12788		4.889244	0.066129	9.850678	-0.065537	-4.440342	-0.046882	-0.714111	-0.128418	-0.180908	-0.133768	-0.384985	0.029017	-0.912716
12789		10.763903	0.986091	9.528549	0.420036	-4.477378	0.065475	-0.739258	-0.127930	-0.094727	-0.129172	-0.436107	0.032077	-0.889998
12790		17.167281	-1.449623	4.387239	0.667853	-2.769125	0.159139	-0.735596	-0.131348	-0.033936	-0.122567	-0.467669	0.030068	-0.874848
12791		15.297980	3.303487	3.118091	0.410005	0.360711	-0.142898	-0.746094	-0.125977	-0.050537	-0.121951	-0.464443	0.024364	-0.876828
12792		4.239993	-2.746606	-3.345142	-0.450802	1.954553	-0.065629	-0.730225	-0.134033	-0.077637	-0.125802	-0.442199	0.026006	-0.887670
12793		-0.500138	3.835273	-3.948720	0.719340	0.510073	-0.273920	-0.732422	-0.138184	-0.096924	-0.125078	-0.437739	0.015849	-0.890219
12794		-2.141402	1.026929	-2.850394	0.028802	-0.346432	-0.613831	-0.729736	-0.148926	-0.086426	-0.131656	-0.441714	0.012781	-0.887351
12795		-0.011885	-2.381376	-0.332507	-0.096787	-0.777054	-0.032755	-0.736816	-0.153320	-0.065186	-0.132400	-0.450135	0.015019	-0.882963
12796		26.207688	2.282394	9.544997	-0.327886	1.300037	0.415724	-0.727051	-0.132324	-0.103516	-0.129887	-0.435083	0.018923	-0.890771
12797		11.509937	-0.256663	11.190551	-0.049919	4.635734	-0.063223	-0.712402	-0.135986	-0.195312	-0.131676	-0.382667	0.011629	-0.914381
12798		4.947354	-1.197375	9.370524	-0.158552	4.370415	-0.172311	-0.680664	-0.141357	-0.279297	-0.134796	-0.331886	0.005476	-0.933623
12799		1.144638	5.404158	10.756242	-0.762629	3.402292	0.086296	-0.655518	-0.121582	-0.348145	-0.137039	-0.290520	0.009074	-0.946961
12800		1.660224	2.523091	11.627114	-0.982141	1.840544	0.719565	-0.634766	-0.105225	-0.374268	-0.132100	-0.266767	0.020176	-0.954452
12801		3.913046	-3.811675	9.796125	-0.515867	0.505651	0.517298	-0.639404	-0.086914	-0.390137	-0.127663	-0.259658	0.027242	-0.956837
12802		6.076823	-1.778653	7.414358	0.064360	0.325714	-0.190901	-0.636963	-0.090820	-0.390137	-0.129724	-0.255850	0.025362	-0.957637
12803		4.881300	1.126555	8.332205	0.153042	0.580655	-0.193720	-0.632568	-0.094238	-0.407471	-0.131640	-0.249145	0.022018	-0.959225
12804		3.371163	-0.027193	9.189305	0.125663	0.413517	-0.088216	-0.621582	-0.102295	-0.410645	-0.132310	-0.244347	0.019591	-0.960419
12805		2.534618	0.674277	9.875694	0.195774	-0.284276	-0.065960	-0.626709	-0.105225	-0.399414	-0.132372	-0.248035	0.017556	-0.959504
12806		2.353000	0.833827	10.195661	0.097534	-1.120054	-0.028729	-0.628662	-0.105713	-0.379395	-0.132097	-0.261564	0.018202	-0.955931
12807		1.929654	0.847687	11.513882	-0.007978	-2.446309	0.023689	-0.664062	-0.098145	-0.343262	-0.131161	-0.290596	0.022450	-0.947548
12808		3.030452	-0.081586	10.782197	-0.089697	-3.834026	-0.070007	-0.695801	-0.101318	-0.272217	-0.130968	-0.335474	0.029534	-0.932433
12809		5.187508	0.555722	9.638491	-0.273958	-4.794953	-0.103661	-0.719971	-0.106201	-0.171387	-0.131223	-0.390273	0.040120	-0.910416
12810		9.545280	1.151791	8.190968	-0.019406	-4.842372	0.095910	-0.737061	-0.118408	-0.081299	-0.127520	-0.444568	0.048760	-0.885280
12811		16.073326	-0.712439	5.582254	0.571343	-3.218760	0.123633	-0.734375	-0.111328	-0.026611	-0.121010	-0.480682	0.048361	-0.867158
12812		14.301426	-0.333614	1.361672	0.809509	-0.659110	-0.259685	-0.733643	-0.109863	-0.010498	-0.118620	-0.489177	0.039151	-0.863193
12813		5.039231	5.186403	0.904192	0.271018	2.098580	-1.398528	-0.738525	-0.141846	-0.049072	-0.133028	-0.467399	0.024662	-0.873632
12814		0.518352	0.770834	-3.625810	0.903988	1.464866	-2.137796	-0.714111	-0.190186	-0.068604	-0.151502	-0.453315	-0.000035	-0.878381
12815		1.407542	-6.158917	-2.617999	-0.413360	0.297153	-0.165027	-0.726807	-0.192139	-0.071533	-0.155833	-0.449302	0.003186	-0.879678
12816		1.078777	-1.658347	-2.618541	-0.058003	-0.153124	1.423101	-0.731445	-0.163086	-0.068359	-0.140648	-0.450802	0.012326	-0.881387
12817		18.244614	6.446916	5.564024	-0.186311	0.712586	0.753650	-0.724609	-0.147949	-0.086670	-0.133623	-0.442512	0.017568	-0.886577
12818		17.987069	-1.000609	9.570817	0.292482	4.471731	-0.103783	-0.708496	-0.148193	-0.172363	-0.134008	-0.392811	0.006399	-0.909780
12819		5.379898	-2.225955	10.171226	0.396468	4.549620	-0.599191	-0.676758	-0.155518	-0.256104	-0.139040	-0.341146	-0.008570	-0.929631
12820		0.970020	4.843292	11.601925	-0.036238	3.466648	-0.457335	-0.651855	-0.159180	-0.330811	-0.143947	-0.300378	-0.016040	-0.942759
12821		1.448249	5.064485	12.011603	-0.660113	1.773960	0.329490	-0.645508	-0.156982	-0.360596	-0.141961	-0.278124	-0.010208	-0.949942
12822		3.996300	-1.495703	9.929946	-0.602795	0.458607	0.436969	-0.644043	-0.137207	-0.370850	-0.138725	-0.271549	-0.002317	-0.952371
12823		6.044995	-1.122862	7.660784	-0.043158	0.155025	-0.135974	-0.634521	-0.143799	-0.369629	-0.140342	-0.269529	-0.002515	-0.952708
12824		5.462187	0.115314	7.997707	0.285100	0.400494	-0.280532	-0.633789	-0.144775	-0.375977	-0.142660	-0.265166	-0.007505	-0.953561
12825		4.055429	0.901209	8.912190	0.421106	0.302721	-0.285029	-0.625244	-0.160156	-0.377441	-0.144519	-0.262200	-0.013968	-0.954028
12826		4.002767	1.474132	8.752572	0.349040	0.022249	-0.214615	-0.620850	-0.160645	-0.378906	-0.145908	-0.262461	-0.018808	-0.953662
12827		4.720727	1.348640	8.233726	0.273727	-0.070279	-0.195297	-0.627930	-0.172363	-0.378662	-0.147265	-0.263669	-0.022543	-0.953039
12828		4.748920	1.990704	8.082353	0.124256	0.018383	-0.151424	-0.632080	-0.175537	-0.375488	-0.148619	-0.263572	-0.024498	-0.952808
12829		4.914498	1.732681	8.147777	-0.092558	0.165785	-0.040847	-0.619141	-0.177734	-0.376709	-0.149318	-0.261366	-0.023776	-0.953324
12830		4.919199	1.000882	8.270969	-0.176346	0.289800	-0.002415	-0.627441	-0.174805	-0.389648	-0.149837	-0.257529	-0.022154	-0.954325
12831		4.685075	0.762132	8.512639	-0.097643	0.300384	-0.030680	-0.613525	-0.174805	-0.385498	-0.150387	-0.253695	-0.021596	-0.955278
12832		4.598167	1.295396	8.523285	-0.050704	0.275932	-0.035233	-0.615479	-0.165771	-0.397217	-0.150890	-0.250249	-0.021548	-0.956108
12833		4.437647	1.362503	8.543636	-0.069162	0.253356	-0.010158	-0.604736	-0.171631	-0.401123	-0.151042	-0.247022	-0.021200	-0.956931
12834		4.211968	0.956984	8.658979	-0.062067	0.186364	0.001067	-0.614990	-0.171875	-0.407471	-0.151132	-0.244609	-0.020754	-0.957546
12835		4.227832	0.830677	8.716117	0.007072	0.067447	-0.034847	-0.612549	-0.172363	-0.406250	-0.151459	-0.243749	-0.021020	-0.957708
12836		4.484339	1.127700	8.500555	0.046024	0.021916	-0.048987	-0.614990	-0.172607	-0.409424	-0.151858	-0.243510	-0.021703	-0.957690
12837		4.489004	1.337503	8.467078	0.007503	0.047554	-0.030025	-0.605469	-0.162842	-0.409912	-0.152121	-0.242892	-0.021924	-0.957801
12838		4.450647	1.316367	8.468943	-0.060377	0.095009	0.004575	-0.607422	-0.166748	-0.406982	-0.152076	-0.241567	-0.021351	-0.958156
12839		4.498295	1.093098	8.557705	-0.099536	0.124793	0.023867	-0.611572	-0.165039	-0.413574	-0.151968	-0.239836	-0.020282	-0.958631
12840		4.419424	0.906321	8.653817	-0.059228	0.140766	0.005910	-0.597900	-0.165283	-0.410645	-0.151935	-0.237982	-0.019785	-0.959108
12841		4.291311	1.000871	8.640734	-0.014910	0.112064	-0.005013	-0.598389	-0.164307	-0.413330	-0.151951	-0.236553	-0.019785	-0.959459
12842		4.177165	1.084956	8.671387	0.003342	0.065297	-0.008126	-0.595459	-0.168213	-0.414551	-0.151951	-0.235718	-0.019927	-0.959662
12843		4.336207	1.059362	8.638969	-0.002916	0.035816	-0.006936	-0.597656	-0.157715	-0.417725	-0.152004	-0.235227	-0.019922	-0.959774
12844		4.338215	1.094163	8.630390	-0.016816	0.043082	0.000029	-0.601318	-0.160156	-0.414551	-0.151902	-0.234611	-0.019781	-0.959944
12845		4.305399	0.951271	8.649586	-0.008365	0.060411	-0.001411	-0.603271	-0.158203	-0.421143	-0.151820	-0.233821	-0.019761	-0.960150
12846		4.166191	1.061429	8.667391	0.011132	0.049236	-0.012153	-0.597412	-0.169678	-0.424072	-0.151786	-0.233189	-0.019997	-0.960304
12847		4.288662	1.055002	8.680984	0.016318	0.024652	-0.019046	-0.605225	-0.166016	-0.424561	-0.151945	-0.232860	-0.020235	-0.960354
12848		4.325987	1.143668	8.641429	0.006430	0.025356	-0.010857	-0.606934	-0.166504	-0.417236	-0.151977	-0.232513	-0.020345	-0.960431
12849		4.306511	1.152284	8.634758	-0.025920	0.035180	0.007398	-0.598633	-0.163086	-0.425049	-0.151893	-0.232011	-0.020018	-0.960572
12850		4.209498	1.084689	8.672996	-0.043972	0.040734	0.018758	-0.597900	-0.157959	-0.424072	-0.151702	-0.231383	-0.019474	-0.960765
12851		4.272935	0.951373	8.704063	-0.032154	0.028540	0.013682	-0.592773	-0.162109	-0.423096	-0.151506	-0.230922	-0.019072	-0.960915
12852		4.279082	0.935857	8.660708	0.005561	0.027901	-0.007464	-0.606445	-0.164551	-0.422363	-0.151517	-0.230539	-0.019165	-0.961003
12853		4.191156	1.083785	8.673205	0.014719	0.026180	-0.010779	-0.596924	-0.159424	-0.425781	-0.151535	-0.230215	-0.019362	-0.961074
12854		4.262420	1.023180	8.663221	0.002283	0.020906	-0.004492	-0.602783	-0.154785	-0.425293	-0.151482	-0.229910	-0.019405	-0.961155
12855		4.229772	1.023703	8.699319	0.005402	0.024175	-0.004421	-0.593018	-0.163818	-0.423340	-0.151364	-0.229576	-0.019502	-0.961251
12856		4.245796	1.028224	8.696225	0.007998	0.020552	-0.008380	-0.590088	-0.173340	-0.427002	-0.151402	-0.229293	-0.019602	-0.961311
12857		4.142431	1.087608	8.675699	0.004882	0.024737	-0.005982	-0.592285	-0.160400	-0.418457	-0.151508	-0.228953	-0.019644	-0.961374
12858		4.178538	1.064513	8.697836	-0.012065	0.005002	0.001776	-0.597412	-0.166260	-0.426025	-0.151453	-0.228831	-0.019448	-0.961416
12859		4.230300	1.022246	8.722208	-0.005201	-0.008026	-0.001148	-0.598145	-0.162354	-0.423584	-0.151454	-0.228874	-0.019311	-0.961408
12860		4.270539	1.065442	8.681656	-0.008632	-0.001512	0.000315	-0.597900	-0.159424	-0.433594	-0.151411	-0.228835	-0.019148	-0.961427
12861		4.254588	1.058892	8.659503	-0.013729	0.016023	0.002354	-0.604736	-0.158447	-0.427979	-0.151312	-0.228549	-0.018977	-0.961514
12862		4.214590	1.044821	8.677741	-0.020865	0.024183	0.002455	-0.599854	-0.166504	-0.425537	-0.151222	-0.228175	-0.018725	-0.961622
12863		4.197947	0.993301	8.720590	-0.014634	0.020695	-0.000892	-0.604736	-0.156982	-0.433105	-0.151251	-0.227864	-0.018519	-0.961695
12864		4.255396	0.993596	8.684243	-0.003480	0.025165	-0.007964	-0.590088	-0.151855	-0.425537	-0.151221	-0.227499	-0.018517	-0.961787
12865		4.248284	1.063242	8.667574	-0.012152	0.043173	-0.001847	-0.595215	-0.156250	-0.425781	-0.151137	-0.226898	-0.018430	-0.961944
12866		4.190657	1.014596	8.685085	-0.021407	0.061297	0.005036	-0.599609	-0.164795	-0.431396	-0.151027	-0.226076	-0.018229	-0.962158
12867		4.160455	0.976759	8.716235	-0.017904	0.057529	0.001660	-0.594238	-0.160156	-0.441650	-0.151015	-0.225311	-0.018053	-0.962343
12868		4.096327	0.934929	8.728102	-0.004743	0.046350	-0.005462	-0.594238	-0.151855	-0.428955	-0.151011	-0.224671	-0.018065	-0.962493
12869		4.123903	0.951787	8.739984	0.008897	0.031775	-0.012626	-0.596680	-0.154297	-0.427734	-0.150998	-0.224254	-0.018232	-0.962589
12870		4.129983	1.008504	8.726050	0.012818	0.024438	-0.013110	-0.588623	-0.162109	-0.426758	-0.151001	-0.223944	-0.018423	-0.962657
12871		4.102417	1.002577	8.726905	0.011116	0.025597	-0.009011	-0.592529	-0.167725	-0.426025	-0.151058	-0.223619	-0.018560	-0.962721
12872		4.068326	1.059734	8.729154	-0.000482	0.020168	-0.002200	-0.600342	-0.155273	-0.436523	-0.151107	-0.223353	-0.018509	-0.962776
12873		4.042755	0.978244	8.749786	-0.009713	0.009105	-0.000538	-0.593994	-0.158936	-0.434082	-0.151009	-0.223176	-0.018375	-0.962835
12874		4.115641	0.951047	8.742698	0.004193	-0.003172	-0.005867	-0.597168	-0.157715	-0.438232	-0.150997	-0.223174	-0.018385	-0.962837
12875		4.113373	0.989940	8.745938	0.013383	-0.007182	-0.009545	-0.592529	-0.157959	-0.427979	-0.150980	-0.223229	-0.018519	-0.962824
12876		4.137217	1.012170	8.736187	0.011032	-0.003853	-0.004828	-0.591064	-0.157227	-0.435303	-0.150941	-0.223261	-0.018599	-0.962822
12877		4.144369	1.014217	8.764297	0.003034	-0.000091	-0.002703	-0.594482	-0.161865	-0.432129	-0.150883	-0.223210	-0.018601	-0.962842
12878		4.135104	0.996637	8.756568	0.001697	0.003715	-0.002654	-0.600586	-0.157227	-0.432129	-0.150869	-0.223130	-0.018572	-0.962864
12879		4.104892	0.984169	8.760621	0.004268	0.004716	-0.005735	-0.587402	-0.169922	-0.432373	-0.150824	-0.223047	-0.018595	-0.962890
12880		4.110242	0.975938	8.742517	0.011434	-0.000946	-0.008291	-0.589111	-0.162842	-0.428223	-0.150950	-0.223038	-0.018670	-0.962870
12881		4.060935	1.033527	8.730172	0.008128	-0.005364	-0.004298	-0.589600	-0.161865	-0.433350	-0.150968	-0.223083	-0.018698	-0.962857
12882		4.120326	0.991923	8.742385	0.006462	-0.009166	-0.005161	-0.594482	-0.159912	-0.437012	-0.150980	-0.223156	-0.018715	-0.962838
12883		4.074163	0.994379	8.745954	0.007359	-0.014187	-0.006016	-0.589111	-0.168945	-0.430908	-0.150962	-0.223287	-0.018748	-0.962810
12884		4.139058	0.988061	8.732720	0.012097	-0.017311	-0.005629	-0.589600	-0.159180	-0.437988	-0.151041	-0.223481	-0.018794	-0.962751
12885		4.105584	1.035142	8.729290	0.009688	-0.017080	-0.003112	-0.592041	-0.158447	-0.433105	-0.150976	-0.223639	-0.018851	-0.962723
12886		4.104194	0.981334	8.732007	0.010352	-0.024128	-0.005176	-0.592773	-0.159424	-0.444824	-0.150936	-0.223897	-0.018898	-0.962669
12887		4.137257	0.982285	8.729032	0.017686	-0.028562	-0.008309	-0.594238	-0.159180	-0.425781	-0.150896	-0.224191	-0.019059	-0.962604
12888		4.154456	1.030862	8.719331	0.015543	-0.026751	-0.012212	-0.594971	-0.162354	-0.437744	-0.150944	-0.224511	-0.019164	-0.962519
12889		4.173325	1.039885	8.723351	0.005374	-0.015583	-0.004308	-0.595215	-0.166992	-0.429688	-0.150925	-0.224650	-0.019166	-0.962490
12890		4.139729	1.023766	8.730822	0.003721	-0.011669	-0.002111	-0.594727	-0.164795	-0.420898	-0.150951	-0.224766	-0.019115	-0.962460
12891		4.126759	1.001028	8.743288	0.005450	-0.019937	-0.004575	-0.596680	-0.161865	-0.430664	-0.151002	-0.225005	-0.019062	-0.962397
12892		4.205988	0.993240	8.729524	0.012426	-0.017428	-0.007803	-0.591797	-0.153809	-0.428711	-0.151012	-0.225198	-0.019141	-0.962349
12893		4.177820	1.037368	8.715012	0.011659	-0.006290	-0.006069	-0.596191	-0.166504	-0.425781	-0.150925	-0.225242	-0.019251	-0.962350
12894		4.148685	1.016943	8.728553	0.004766	-0.003215	-0.003141	-0.585449	-0.159424	-0.426270	-0.150958	-0.225267	-0.019226	-0.962339
12895		4.174292	0.990838	8.742232	0.010105	-0.004247	-0.006635	-0.590332	-0.164062	-0.435547	-0.150958	-0.225286	-0.019306	-0.962333
12896		4.171398	1.026194	8.705274	0.010392	-0.004263	-0.005266	-0.597168	-0.165771	-0.428711	-0.150958	-0.225293	-0.019391	-0.962330
12897		4.172318	1.035888	8.711357	0.007153	0.001433	-0.004224	-0.589844	-0.162354	-0.428467	-0.150978	-0.225259	-0.019415	-0.962334
12898		4.150721	1.033313	8.733326	0.004665	0.000871	-0.003470	-0.591553	-0.164062	-0.434814	-0.150970	-0.225212	-0.019423	-0.962346
12899		4.167927	0.998650	8.712568	0.002876	-0.001328	-0.002149	-0.585693	-0.165283	-0.418213	-0.150948	-0.225174	-0.019413	-0.962359
12900		4.170423	1.030306	8.721776	0.000489	0.006176	-0.004200	-0.598633	-0.155762	-0.431885	-0.151029	-0.225083	-0.019348	-0.962369
12901		4.147517	1.029782	8.711082	-0.001582	0.011716	-0.001199	-0.601562	-0.161621	-0.431396	-0.150911	-0.224892	-0.019317	-0.962433
12902		4.157773	1.018845	8.722733	-0.004617	0.011450	-0.002594	-0.600586	-0.164551	-0.426758	-0.150887	-0.224713	-0.019228	-0.962480
12903		4.153708	1.004332	8.711060	0.002074	0.011761	-0.004102	-0.586426	-0.163574	-0.428467	-0.150913	-0.224559	-0.019200	-0.962512
12904		4.150712	1.004213	8.729020	0.007338	0.012507	-0.008350	-0.589600	-0.161865	-0.432129	-0.150976	-0.224375	-0.019273	-0.962544
12905		4.143529	1.036741	8.710923	0.002958	0.016407	-0.005591	-0.598145	-0.162842	-0.437744	-0.150981	-0.224129	-0.019304	-0.962600
12906		4.096698	1.023423	8.733273	-0.000308	0.017047	-0.003068	-0.591064	-0.162842	-0.438232	-0.150949	-0.223871	-0.019293	-0.962665
12907		4.117444	0.981542	8.735885	0.003945	0.007031	-0.006702	-0.591064	-0.174316	-0.429932	-0.150958	-0.223728	-0.019332	-0.962696
12908		4.136699	0.978286	8.741164	0.017824	-0.000893	-0.011787	-0.591309	-0.173584	-0.427490	-0.151158	-0.223747	-0.019473	-0.962658
12909		4.148361	1.034500	8.740648	0.015985	0.001162	-0.013729	-0.593994	-0.161865	-0.439209	-0.151382	-0.223743	-0.019597	-0.962621
12910		4.160509	1.031798	8.717444	0.010511	0.006013	-0.011164	-0.591064	-0.161133	-0.431641	-0.151393	-0.223624	-0.019733	-0.962644
12911		4.156870	1.025697	8.728765	0.007240	0.016588	-0.008695	-0.592529	-0.162842	-0.428711	-0.151403	-0.223390	-0.019824	-0.962695
12912		4.156614	0.998197	8.749880	0.010256	0.018436	-0.015097	-0.590332	-0.164307	-0.431885	-0.151514	-0.223154	-0.019954	-0.962729
12913		4.101385	1.055565	8.756455	0.017086	0.022289	-0.016747	-0.592529	-0.166016	-0.437256	-0.151630	-0.222872	-0.020186	-0.962771
12914		4.083022	1.062597	8.741372	0.006028	0.018778	-0.010835	-0.588135	-0.167480	-0.436035	-0.151701	-0.222604	-0.020270	-0.962820
12915		4.102889	1.029087	8.751217	0.003040	0.019404	-0.006946	-0.596191	-0.159424	-0.428711	-0.151758	-0.222322	-0.020305	-0.962876
12916		4.126692	1.037072	8.742958	0.005375	0.021310	-0.006118	-0.593262	-0.160156	-0.427246	-0.151728	-0.222053	-0.020360	-0.962942
12917		4.128516	1.040924	8.756899	0.004651	0.025252	-0.006271	-0.588867	-0.167969	-0.437012	-0.151716	-0.221736	-0.020410	-0.963015
12918		4.127656	1.030030	8.758614	0.004753	0.033673	-0.004991	-0.591553	-0.160645	-0.437744	-0.151748	-0.221290	-0.020483	-0.963112
12919		4.064904	1.038530	8.745001	0.003567	0.038702	-0.005531	-0.585449	-0.165283	-0.437988	-0.151692	-0.220776	-0.020574	-0.963236
12920		3.933350	1.040029	8.774186	-0.004426	0.020281	-0.003703	-0.593018	-0.159668	-0.438477	-0.151704	-0.220466	-0.020520	-0.963307
12921		4.050705	0.990027	8.761109	0.002408	0.004278	-0.005200	-0.588135	-0.161377	-0.442871	-0.151646	-0.220368	-0.020530	-0.963338
12922		4.070180	1.061087	8.769037	0.004488	0.003890	-0.006160	-0.593750	-0.165771	-0.436768	-0.151601	-0.220258	-0.020581	-0.963369
12923		4.078967	1.021753	8.770881	0.008511	0.004723	-0.005910	-0.593994	-0.155518	-0.435059	-0.151623	-0.220184	-0.020638	-0.963381
12924		4.078343	1.026519	8.754143	0.012468	0.002182	-0.008441	-0.591797	-0.156738	-0.440430	-0.151537	-0.220139	-0.020774	-0.963402
12925		4.068716	1.011016	8.762993	0.021207	0.001579	-0.012070	-0.590820	-0.162354	-0.433350	-0.151466	-0.220097	-0.021041	-0.963417
12926		4.056219	1.037464	8.725091	0.016739	0.004674	-0.011107	-0.589111	-0.159668	-0.441162	-0.151493	-0.220039	-0.021216	-0.963422
12927		4.083751	1.058758	8.761739	0.007949	0.007317	-0.007652	-0.590088	-0.169922	-0.431396	-0.151439	-0.219900	-0.021318	-0.963460
12928		4.052561	1.047193	8.766164	0.005862	0.010280	-0.005685	-0.590332	-0.164062	-0.438477	-0.151533	-0.219772	-0.021326	-0.963475
12929		4.042580	1.038258	8.765526	0.008138	0.006238	-0.008642	-0.589600	-0.164795	-0.429688	-0.151555	-0.219665	-0.021405	-0.963494
12930		4.046331	1.020432	8.774827	0.016620	0.001135	-0.010954	-0.591309	-0.163818	-0.447998	-0.151624	-0.219665	-0.021552	-0.963479
12931		4.015218	1.057746	8.754288	0.012434	-0.005709	-0.008534	-0.589844	-0.160645	-0.439697	-0.151591	-0.219679	-0.021690	-0.963479
12932		4.057714	1.063810	8.760511	0.005322	-0.001565	-0.004654	-0.588623	-0.165527	-0.434082	-0.151519	-0.219651	-0.021726	-0.963495
12933		4.056974	1.057364	8.754038	-0.000355	0.001783	-0.002136	-0.587402	-0.166748	-0.439209	-0.151520	-0.219597	-0.021660	-0.963509
12934		4.048416	1.044078	8.769750	-0.004490	0.000251	-0.000633	-0.585205	-0.168213	-0.441895	-0.151516	-0.219536	-0.021549	-0.963526
12935		4.033691	1.029008	8.773330	0.002030	-0.006342	-0.004743	-0.591797	-0.162109	-0.442871	-0.151560	-0.219554	-0.021521	-0.963516
12936		4.057007	1.042262	8.757136	0.008370	-0.006438	-0.005263	-0.592529	-0.164062	-0.437744	-0.151496	-0.219587	-0.021587	-0.963517
12937		4.066852	1.064503	8.747329	0.005120	-0.003329	-0.005264	-0.598145	-0.163574	-0.430908	-0.151485	-0.219598	-0.021596	-0.963516
12938		4.078660	1.046468	8.768153	0.002508	0.002765	-0.003856	-0.585693	-0.165039	-0.434326	-0.151473	-0.219568	-0.021554	-0.963525
12939		4.056639	1.045115	8.773444	0.005463	0.004817	-0.003216	-0.595703	-0.167480	-0.440918	-0.151471	-0.219482	-0.021571	-0.963545
12940		4.055467	1.046901	8.773773	0.007314	0.004973	-0.004369	-0.595215	-0.164551	-0.431396	-0.151473	-0.219399	-0.021613	-0.963563
12941		4.061550	1.051662	8.785588	0.011558	0.002423	-0.005525	-0.589111	-0.168213	-0.435791	-0.151473	-0.219385	-0.021685	-0.963564
12942		4.073062	1.039560	8.772908	0.018259	0.005322	-0.006011	-0.592529	-0.169434	-0.434082	-0.151501	-0.219324	-0.021854	-0.963570
12943		4.057289	1.038708	8.766396	0.022587	0.005773	-0.008506	-0.590576	-0.165283	-0.440918	-0.151565	-0.219281	-0.022068	-0.963565
12944		4.024438	1.082223	8.769834	0.014387	0.008287	-0.005831	-0.593018	-0.166016	-0.445312	-0.151531	-0.219156	-0.022222	-0.963595
12945		4.009834	1.094843	8.759792	0.002403	0.006842	-0.004213	-0.594727	-0.155762	-0.438477	-0.151499	-0.219018	-0.022232	-0.963631
12946		4.030571	1.034538	8.783098	-0.002026	0.003122	-0.000970	-0.588135	-0.173584	-0.431152	-0.151325	-0.218932	-0.022184	-0.963679
12947		4.030369	1.036719	8.766451	0.004439	0.001144	-0.004246	-0.591064	-0.165039	-0.440918	-0.151461	-0.218922	-0.022141	-0.963661
12948		4.053855	1.071787	8.770235	0.005364	0.001546	-0.002471	-0.589355	-0.169434	-0.430908	-0.151412	-0.218865	-0.022162	-0.963681
12949		4.042047	1.028468	8.793797	0.011130	0.001198	-0.006327	-0.588135	-0.167969	-0.434814	-0.151498	-0.218864	-0.022216	-0.963667
12950		4.056643	1.043975	8.749675	0.021193	0.003610	-0.012264	-0.599121	-0.166504	-0.438721	-0.151591	-0.218831	-0.022432	-0.963654
12951		4.050691	1.079173	8.746740	0.025760	0.008939	-0.011975	-0.584717	-0.167480	-0.435303	-0.151616	-0.218751	-0.022716	-0.963662
12952		4.045659	1.058532	8.778323	0.019955	0.008095	-0.014005	-0.582275	-0.170410	-0.437256	-0.151717	-0.218651	-0.022941	-0.963664
12953		4.025877	1.095181	8.758706	0.014444	0.008168	-0.009368	-0.589111	-0.162842	-0.437256	-0.151807	-0.218532	-0.023087	-0.963673
12954		4.016475	1.093847	8.764477	0.002348	0.008877	-0.004404	-0.583984	-0.167725	-0.443848	-0.151755	-0.218388	-0.023093	-0.963714
12955		4.005602	1.073598	8.774606	-0.005596	0.008538	-0.001949	-0.589844	-0.165283	-0.434326	-0.151739	-0.218204	-0.023007	-0.963760
12956		4.004074	1.073631	8.758825	-0.009280	0.008498	0.000946	-0.589111	-0.162109	-0.447266	-0.151707	-0.218063	-0.022834	-0.963801
12957		4.016141	1.074804	8.783499	-0.019174	0.009506	0.003192	-0.587402	-0.161621	-0.439941	-0.151574	-0.217837	-0.022593	-0.963879
12958		4.002951	1.025760	8.808438	-0.012394	0.007137	-0.002821	-0.585205	-0.166260	-0.438477	-0.151530	-0.217676	-0.022422	-0.963926
12959		4.016237	1.025734	8.792207	0.003671	-0.000880	-0.008187	-0.596191	-0.158691	-0.437256	-0.151592	-0.217649	-0.022424	-0.963922
12960		4.027284	1.071643	8.785102	0.007816	-0.001271	-0.005990	-0.589111	-0.165771	-0.442383	-0.151497	-0.217656	-0.022476	-0.963934
12961		4.012171	1.060320	8.771975	0.004845	0.001173	-0.009332	-0.586182	-0.172363	-0.434570	-0.151540	-0.217600	-0.022508	-0.963939
12962		4.024940	1.057769	8.805702	0.006377	-0.000473	-0.004630	-0.583008	-0.157471	-0.444092	-0.151654	-0.217603	-0.022497	-0.963921
12963		4.017729	1.058649	8.777257	0.003064	0.004670	-0.004821	-0.585205	-0.161377	-0.444336	-0.151521	-0.217468	-0.022546	-0.963971
12964		4.010876	1.071774	8.778723	-0.000409	0.003816	-0.002323	-0.585205	-0.162598	-0.434814	-0.151427	-0.217349	-0.022527	-0.964013
12965		4.000748	1.043484	8.798398	0.005320	-0.001837	-0.005240	-0.587402	-0.168701	-0.450195	-0.151411	-0.217350	-0.022537	-0.964016
12966		4.016646	1.060535	8.793998	0.007051	-0.005218	-0.006228	-0.585938	-0.166016	-0.441406	-0.151432	-0.217347	-0.022589	-0.964012
12967		4.018041	1.064050	8.776462	0.004276	-0.005780	-0.006851	-0.587646	-0.166748	-0.445068	-0.151464	-0.217373	-0.022592	-0.964001
12968		4.010656	1.053206	8.791398	0.006912	-0.004255	-0.008768	-0.590576	-0.166260	-0.448486	-0.151505	-0.217376	-0.022642	-0.963992
12969		4.005308	1.067829	8.791985	0.005925	-0.001965	-0.006020	-0.590332	-0.168213	-0.439941	-0.151487	-0.217342	-0.022686	-0.964002
12970		4.014081	1.083520	8.759342	0.000911	-0.000520	-0.003519	-0.584473	-0.170166	-0.446045	-0.151516	-0.217320	-0.022631	-0.964003
12971		4.005485	1.069321	8.791723	-0.000922	-0.000406	-0.001776	-0.591553	-0.163086	-0.438965	-0.151547	-0.217257	-0.022568	-0.964014
12972		4.003710	1.045958	8.789235	0.001827	-0.002961	-0.003332	-0.584229	-0.170654	-0.444336	-0.151497	-0.217266	-0.022533	-0.964021
12973		4.005745	1.063368	8.784791	0.003384	-0.003070	-0.006449	-0.594727	-0.169189	-0.439941	-0.151591	-0.217250	-0.022522	-0.964010
12974		4.012760	1.060099	8.789609	0.007212	-0.003991	-0.006806	-0.586914	-0.161133	-0.441895	-0.151658	-0.217295	-0.022534	-0.963989
12975		4.019930	1.058755	8.777644	0.006317	-0.001280	-0.006404	-0.589111	-0.160645	-0.436035	-0.151594	-0.217263	-0.022588	-0.964005
12976		4.026383	1.055293	8.782745	0.004567	-0.000089	-0.002301	-0.588623	-0.168701	-0.443848	-0.151498	-0.217244	-0.022591	-0.964024
12977		4.004729	1.047780	8.764550	0.001265	0.002473	-0.003492	-0.592285	-0.166016	-0.443115	-0.151524	-0.217168	-0.022558	-0.964038
12978		3.989231	1.039569	8.791753	0.005031	0.000745	-0.005619	-0.586426	-0.165039	-0.445068	-0.151520	-0.217128	-0.022575	-0.964047
12979		3.998136	1.061441	8.782291	0.004912	-0.002792	-0.005452	-0.587158	-0.169434	-0.443848	-0.151503	-0.217105	-0.022600	-0.964055
12980		4.011672	1.052886	8.792410	0.004971	-0.004832	-0.005271	-0.590088	-0.168701	-0.430176	-0.151558	-0.217122	-0.022600	-0.964042
12981		3.999506	1.058826	8.757972	0.004091	-0.004701	-0.005867	-0.589844	-0.166016	-0.446533	-0.151661	-0.217199	-0.022547	-0.964010
12982		4.026627	1.047570	8.785007	0.006222	-0.004549	-0.005648	-0.591797	-0.167480	-0.446289	-0.151644	-0.217204	-0.022583	-0.964011
12983		4.041416	1.055811	8.791085	0.006944	-0.001140	-0.006595	-0.587402	-0.164551	-0.436768	-0.151658	-0.217177	-0.022627	-0.964013
12984		3.974802	1.081188	8.768984	0.002086	-0.003236	-0.002548	-0.589355	-0.172119	-0.434082	-0.151634	-0.217192	-0.022585	-0.964015
12985		4.000795	1.054441	8.783373	0.003077	-0.005529	-0.005297	-0.589600	-0.166748	-0.446533	-0.151774	-0.217264	-0.022517	-0.963978
12986		4.010220	1.061314	8.760410	0.004464	-0.011904	-0.006310	-0.581055	-0.167969	-0.437012	-0.151782	-0.217354	-0.022518	-0.963957
12987		4.003825	1.041670	8.784998	0.008703	-0.014718	-0.008052	-0.581787	-0.164551	-0.441895	-0.151872	-0.217504	-0.022546	-0.963908
12988		4.020417	1.036081	8.776878	0.010424	-0.018370	-0.009630	-0.591064	-0.162109	-0.440186	-0.151893	-0.217675	-0.022622	-0.963864
12989		3.994186	1.093630	8.773782	0.006289	-0.017058	-0.006529	-0.588867	-0.170654	-0.434814	-0.151843	-0.217850	-0.022634	-0.963832
12990		4.043050	1.054390	8.769127	-0.005108	-0.017994	-0.000963	-0.585693	-0.166992	-0.441162	-0.151926	-0.218046	-0.022444	-0.963779
12991		4.046848	1.059636	8.790772	-0.001654	-0.014559	-0.002475	-0.598877	-0.174805	-0.442383	-0.151931	-0.218164	-0.022348	-0.963754
12992		4.056803	1.063426	8.784395	-0.002033	-0.010206	-0.003622	-0.590332	-0.172607	-0.435791	-0.152066	-0.218271	-0.022211	-0.963712
12993		4.057442	1.054423	8.794180	-0.001057	-0.004218	-0.002196	-0.591553	-0.161377	-0.445068	-0.152182	-0.218309	-0.022094	-0.963687
12994		4.044462	1.057508	8.776950	0.000866	-0.001064	-0.004702	-0.590820	-0.176270	-0.434570	-0.152085	-0.218256	-0.022087	-0.963715
12995		4.036032	1.039760	8.769273	0.003664	-0.000227	-0.003496	-0.586426	-0.166016	-0.431641	-0.152274	-0.218269	-0.022017	-0.963684
12996		4.029314	1.044968	8.780599	0.007842	-0.000999	-0.005424	-0.595215	-0.162598	-0.433838	-0.152316	-0.218281	-0.022039	-0.963674
12997		4.037156	1.058586	8.781524	0.007974	-0.000042	-0.006592	-0.585938	-0.168457	-0.444092	-0.152304	-0.218291	-0.022074	-0.963673
12998		4.002195	1.053390	8.762919	0.006420	-0.002782	-0.005058	-0.591797	-0.161377	-0.436279	-0.152319	-0.218269	-0.022111	-0.963675
12999		4.007834	1.033853	8.771838	0.006267	-0.004010	-0.004481	-0.588135	-0.170898	-0.438965	-0.152249	-0.218302	-0.022132	-0.963678
13000		4.004182	1.056299	8.778185	0.011391	-0.012655	-0.008811	-0.586914	-0.168945	-0.443115	-0.152368	-0.218441	-0.022188	-0.963626
13001		4.033620	1.044070	8.747195	0.011734	-0.014698	-0.007257	-0.583740	-0.166260	-0.439453	-0.152409	-0.218578	-0.022266	-0.963587
13002		4.011507	1.079391	8.770534	0.011652	-0.015782	-0.009619	-0.585693	-0.160400	-0.435303	-0.152446	-0.218730	-0.022352	-0.963544
13003		4.027362	1.066443	8.756086	0.008873	-0.015683	-0.005527	-0.587646	-0.167236	-0.443115	-0.152359	-0.218888	-0.022401	-0.963521
13004		4.043511	1.058682	8.764916	0.007131	-0.015155	-0.006126	-0.585693	-0.166504	-0.437744	-0.152362	-0.219018	-0.022429	-0.963490
13005		4.060281	1.059540	8.763382	0.006077	-0.013672	-0.005145	-0.588867	-0.165527	-0.432617	-0.152370	-0.219144	-0.022433	-0.963460
13006		4.030465	1.085047	8.752242	0.005862	-0.012859	-0.004750	-0.593994	-0.168457	-0.435547	-0.152381	-0.219290	-0.022416	-0.963426
13007		4.051703	1.062645	8.777200	0.005002	-0.012459	-0.004755	-0.584961	-0.173096	-0.436279	-0.152429	-0.219434	-0.022380	-0.963386
13008		4.060403	1.053571	8.757895	0.006856	-0.012304	-0.005918	-0.583252	-0.165527	-0.437744	-0.152565	-0.219558	-0.022369	-0.963337
13009		4.072758	1.092064	8.743069	0.005305	-0.010006	-0.005913	-0.593750	-0.166504	-0.436279	-0.152556	-0.219625	-0.022385	-0.963323
13010		4.065735	1.071842	8.768225	0.004550	-0.008250	-0.002967	-0.589844	-0.166992	-0.438965	-0.152541	-0.219708	-0.022360	-0.963306
13011		4.052899	1.066413	8.761008	0.000242	-0.006251	-0.002981	-0.588135	-0.162598	-0.437256	-0.152531	-0.219736	-0.022301	-0.963303
13012		4.060137	1.054669	8.759252	0.003215	-0.006766	-0.003358	-0.589600	-0.168701	-0.437012	-0.152447	-0.219770	-0.022294	-0.963309
13013		4.068440	1.058312	8.770152	0.004592	-0.005525	-0.004909	-0.580322	-0.175049	-0.443359	-0.152493	-0.219808	-0.022280	-0.963293
13014		4.064301	1.080761	8.760118	0.001684	-0.004197	-0.002762	-0.593262	-0.167725	-0.434570	-0.152602	-0.219780	-0.022239	-0.963283
13015		4.049296	1.058820	8.757466	0.002114	-0.002970	-0.001967	-0.593506	-0.171387	-0.433105	-0.152616	-0.219803	-0.022181	-0.963277
13016		4.056919	1.054592	8.762129	0.003067	-0.007994	-0.002780	-0.593994	-0.163086	-0.439453	-0.152717	-0.219902	-0.022105	-0.963240
13017		4.051281	1.053213	8.749723	0.002720	-0.005954	-0.004337	-0.595947	-0.169922	-0.440674	-0.152646	-0.219932	-0.022092	-0.963245
13018		4.080078	1.051004	8.765819	0.006967	-0.008767	-0.006095	-0.589111	-0.165527	-0.434570	-0.152707	-0.220016	-0.022101	-0.963216
13019		4.055557	1.071769	8.760501	0.007397	-0.007539	-0.005301	-0.592529	-0.162354	-0.435059	-0.152704	-0.220086	-0.022125	-0.963200
13020		4.063044	1.061174	8.758496	0.004900	-0.008110	-0.004536	-0.596924	-0.170654	-0.431152	-0.152637	-0.220159	-0.022126	-0.963194
13021		4.065184	1.070154	8.763916	0.005309	-0.007154	-0.004331	-0.585449	-0.161133	-0.433838	-0.152745	-0.220267	-0.022077	-0.963153
13022		4.078848	1.054137	8.767392	0.003992	-0.005398	-0.004131	-0.590576	-0.167725	-0.436768	-0.152652	-0.220287	-0.022086	-0.963163
13023		4.080105	1.056794	8.749909	0.002484	-0.005413	-0.004532	-0.596924	-0.163574	-0.432617	-0.152680	-0.220318	-0.022051	-0.963153
13024		4.067179	1.058932	8.749346	0.002416	-0.003373	-0.004715	-0.589111	-0.177002	-0.428467	-0.152659	-0.220354	-0.022011	-0.963149
13025		4.081054	1.051479	8.742610	0.003538	-0.004042	-0.003929	-0.594238	-0.170654	-0.433105	-0.152895	-0.220421	-0.021924	-0.963098
13026		4.082860	1.069021	8.738062	0.003877	-0.001045	-0.003908	-0.591553	-0.164062	-0.441406	-0.152990	-0.220434	-0.021880	-0.963081
13027		4.067807	1.053450	8.758801	0.002845	-0.002144	-0.003921	-0.600830	-0.168945	-0.435547	-0.152910	-0.220400	-0.021885	-0.963101
13028		4.068319	1.054571	8.758429	0.004206	-0.003356	-0.002942	-0.587158	-0.166016	-0.429688	-0.152955	-0.220447	-0.021842	-0.963084
13029		4.076825	1.067025	8.759074	0.002395	-0.003645	-0.005305	-0.583252	-0.167480	-0.434082	-0.152998	-0.220475	-0.021800	-0.963072
13030		4.077900	1.076616	8.748324	0.000322	-0.000131	-0.002156	-0.593018	-0.161133	-0.430176	-0.153002	-0.220427	-0.021749	-0.963083
13031		4.091095	1.074442	8.765345	0.001003	0.003008	-0.003701	-0.595459	-0.171387	-0.433350	-0.152943	-0.220380	-0.021710	-0.963104
13032		4.067091	1.048395	8.768838	0.000092	0.005720	-0.003296	-0.593262	-0.169434	-0.430908	-0.153057	-0.220310	-0.021627	-0.963104
13033		4.066914	1.065244	8.765284	0.000583	0.007088	-0.005442	-0.591553	-0.164551	-0.432617	-0.153174	-0.220225	-0.021561	-0.963106
13034		4.069961	1.039315	8.752230	0.006056	0.007147	-0.006590	-0.585938	-0.162842	-0.430176	-0.153187	-0.220130	-0.021594	-0.963125
13035		4.041898	1.058683	8.765279	0.008127	0.006489	-0.008153	-0.586670	-0.169678	-0.431641	-0.153187	-0.220037	-0.021664	-0.963145
13036		4.046683	1.050321	8.747702	0.008716	0.003909	-0.006402	-0.593262	-0.171875	-0.431885	-0.153285	-0.219986	-0.021706	-0.963140
13037		4.026393	1.066384	8.748645	0.008878	0.000099	-0.005444	-0.589355	-0.173340	-0.436768	-0.153422	-0.220004	-0.021718	-0.963114
13038		4.012416	1.062349	8.741825	0.007123	-0.004684	-0.005090	-0.594238	-0.160400	-0.431152	-0.153547	-0.220044	-0.021719	-0.963085
13039		4.020713	1.057976	8.762803	0.008121	-0.014473	-0.003770	-0.594727	-0.162109	-0.435547	-0.153461	-0.220222	-0.021734	-0.963057
13040		4.050952	1.035664	8.741650	0.007339	-0.027141	-0.005811	-0.595703	-0.164551	-0.432373	-0.153406	-0.220533	-0.021730	-0.962995
13041		4.067108	1.080669	8.748112	0.010601	-0.027651	-0.004822	-0.596924	-0.162598	-0.435791	-0.153395	-0.220876	-0.021740	-0.962918
13042		4.086420	1.081633	8.745304	0.004625	-0.024044	-0.003064	-0.595459	-0.164795	-0.427002	-0.153316	-0.221145	-0.021702	-0.962870
13043		4.088954	1.057574	8.757789	0.003424	-0.018477	-0.002450	-0.598389	-0.159424	-0.436768	-0.153323	-0.221385	-0.021622	-0.962815
13044		4.105569	1.050294	8.749740	0.004893	-0.013697	-0.004183	-0.592773	-0.174316	-0.434570	-0.153189	-0.221520	-0.021626	-0.962805
13045		4.061111	1.067404	8.749266	0.003791	-0.012757	-0.004378	-0.592529	-0.162598	-0.436279	-0.153334	-0.221660	-0.021562	-0.962752
13046		4.109586	1.035507	8.767908	0.006529	-0.012727	-0.004959	-0.588867	-0.169678	-0.436035	-0.153254	-0.221774	-0.021588	-0.962738
13047		4.101520	1.080132	8.747526	0.007103	-0.010270	-0.004747	-0.591797	-0.164551	-0.426758	-0.153294	-0.221860	-0.021603	-0.962711
13048		4.122833	1.067993	8.745571	0.002173	-0.005287	-0.002379	-0.589844	-0.158691	-0.440674	-0.153283	-0.221922	-0.021545	-0.962700
13049		4.102175	1.067318	8.733801	0.001233	0.002463	-0.003513	-0.601318	-0.165039	-0.442871	-0.153092	-0.221805	-0.021571	-0.962757
13050		4.113514	1.049204	8.755281	0.001929	0.005874	-0.004472	-0.587646	-0.166016	-0.428467	-0.153028	-0.221684	-0.021573	-0.962794
13051		4.092621	1.069660	8.780121	0.002480	0.008058	-0.004850	-0.591553	-0.165771	-0.427734	-0.153059	-0.221569	-0.021557	-0.962816
13052		4.088503	1.042808	8.738766	0.004913	0.007812	-0.007395	-0.591309	-0.168457	-0.437012	-0.153116	-0.221477	-0.021569	-0.962828
13053		4.067235	1.058253	8.740275	0.007281	0.004982	-0.004462	-0.591553	-0.163330	-0.431152	-0.153130	-0.221384	-0.021615	-0.962846
13054		4.088388	1.079481	8.731045	0.006311	0.004015	-0.007413	-0.584229	-0.167725	-0.433105	-0.153121	-0.221320	-0.021657	-0.962862
13055		4.079394	1.070349	8.730293	0.007624	0.005120	-0.006031	-0.585938	-0.170898	-0.440674	-0.153157	-0.221223	-0.021713	-0.962877
13056		4.083639	1.057200	8.763394	0.006281	0.006601	-0.006420	-0.589844	-0.167725	-0.445801	-0.153219	-0.221080	-0.021765	-0.962899
13057		4.070063	1.083829	8.765978	0.003907	0.006981	-0.006818	-0.588867	-0.166260	-0.427979	-0.153205	-0.220911	-0.021813	-0.962939
13058		4.087569	1.064646	8.759239	0.006564	0.006606	-0.005046	-0.584961	-0.177246	-0.433105	-0.153236	-0.220834	-0.021836	-0.962951
13059		4.085737	1.066389	8.759882	0.004095	0.008753	-0.006221	-0.593750	-0.167969	-0.430420	-0.153465	-0.220709	-0.021813	-0.962943
13060		4.090261	1.064297	8.749146	0.004159	0.009573	-0.004452	-0.587158	-0.160889	-0.439697	-0.153519	-0.220600	-0.021803	-0.962960
13061		4.080594	1.062078	8.755339	0.005897	0.011223	-0.006989	-0.588135	-0.163818	-0.431396	-0.153400	-0.220397	-0.021896	-0.963024
13062		4.090644	1.054945	8.766993	0.011125	0.014001	-0.011472	-0.586914	-0.165039	-0.440186	-0.153428	-0.220219	-0.022028	-0.963057
13063		4.081659	1.081934	8.741862	0.016197	0.018413	-0.013791	-0.590820	-0.168457	-0.434326	-0.153440	-0.219953	-0.022259	-0.963110
13064		4.041065	1.068752	8.752813	0.016648	0.019916	-0.012414	-0.580566	-0.166016	-0.430908	-0.153532	-0.219720	-0.022455	-0.963144
13065		4.024446	1.097180	8.773071	0.018257	0.018167	-0.011240	-0.585449	-0.167480	-0.442871	-0.153570	-0.219494	-0.022679	-0.963185
13066		4.032104	1.071259	8.749191	0.017604	0.015305	-0.009098	-0.589111	-0.170166	-0.434570	-0.153546	-0.219262	-0.022908	-0.963236
13067		4.037327	1.100977	8.780626	0.018067	0.013947	-0.009299	-0.587402	-0.175537	-0.436768	-0.153621	-0.219105	-0.023096	-0.963255
13068		4.032967	1.090338	8.769048	0.013493	0.014031	-0.006966	-0.600342	-0.169189	-0.440430	-0.153769	-0.218935	-0.023209	-0.963267
13069		4.041425	1.061304	8.778455	0.020021	0.009198	-0.011860	-0.582520	-0.169189	-0.436035	-0.153823	-0.218846	-0.023424	-0.963274
13070		4.034259	1.096251	8.775430	0.025269	0.009803	-0.013213	-0.593506	-0.171875	-0.438477	-0.153884	-0.218725	-0.023722	-0.963284
13071		4.026536	1.123877	8.766088	0.022462	0.009642	-0.009696	-0.596436	-0.168213	-0.437256	-0.153952	-0.218630	-0.023955	-0.963289
13072		3.981639	1.115386	8.770626	0.013005	0.009529	-0.006992	-0.588867	-0.168701	-0.439209	-0.153947	-0.218528	-0.024075	-0.963310
13073		4.000406	1.112125	8.776411	0.006771	0.003067	-0.003498	-0.588623	-0.163818	-0.430908	-0.153907	-0.218461	-0.024115	-0.963331
13074		4.012671	1.098020	8.763962	0.005886	0.000049	-0.006255	-0.593018	-0.174072	-0.429443	-0.153856	-0.218458	-0.024141	-0.963339
13075		4.040335	1.105266	8.770356	0.006385	0.002383	-0.003109	-0.591797	-0.165039	-0.433594	-0.153975	-0.218470	-0.024115	-0.963318
13076		4.019875	1.120096	8.771308	0.003125	0.002880	-0.004105	-0.588867	-0.169434	-0.435547	-0.153917	-0.218428	-0.024105	-0.963337
13077		4.015483	1.072417	8.784505	0.003972	0.002208	-0.004691	-0.588867	-0.171387	-0.437256	-0.153935	-0.218386	-0.024098	-0.963344
13078		4.025279	1.119273	8.760056	0.006127	0.002648	-0.003896	-0.588135	-0.165039	-0.430420	-0.153965	-0.218338	-0.024113	-0.963349
13079		4.009446	1.104144	8.781263	0.003328	0.001789	-0.005087	-0.587158	-0.175537	-0.436768	-0.153935	-0.218315	-0.024102	-0.963360
13080		4.009866	1.114345	8.770621	0.004914	-0.000229	-0.004494	-0.591553	-0.174561	-0.448242	-0.154058	-0.218305	-0.024082	-0.963343
13081		4.009731	1.115129	8.770583	-0.001698	0.000365	-0.004130	-0.589844	-0.167969	-0.432617	-0.154113	-0.218230	-0.024014	-0.963353
13082		4.021952	1.096717	8.791911	0.000034	-0.000428	-0.004123	-0.589844	-0.176270	-0.439453	-0.154129	-0.218229	-0.023947	-0.963352
13083		4.009107	1.108009	8.764336	-0.001807	-0.000308	-0.002365	-0.591553	-0.168701	-0.443604	-0.154249	-0.218205	-0.023840	-0.963341
13084		4.036737	1.104721	8.781241	-0.000276	-0.003151	-0.003539	-0.592773	-0.176514	-0.436768	-0.154214	-0.218189	-0.023790	-0.963351
13085		4.017040	1.112527	8.758688	0.002947	-0.001056	-0.001559	-0.583496	-0.166504	-0.435303	-0.154340	-0.218207	-0.023721	-0.963329
13086		4.022320	1.090747	8.785069	0.002044	-0.001211	-0.002741	-0.584229	-0.173096	-0.439209	-0.154285	-0.218184	-0.023697	-0.963343
13087		4.009487	1.101719	8.774123	0.005654	-0.001573	-0.003315	-0.583496	-0.165527	-0.436523	-0.154333	-0.218168	-0.023701	-0.963339
13088		4.036677	1.093681	8.767805	0.004547	-0.000636	-0.003515	-0.584717	-0.171631	-0.435547	-0.154254	-0.218135	-0.023718	-0.963359
13089		4.009815	1.111375	8.780182	-0.000853	0.002833	-0.002554	-0.588867	-0.164062	-0.445557	-0.154306	-0.218071	-0.023643	-0.963367
13090		4.022414	1.101837	8.791060	0.000438	0.000530	-0.003925	-0.591064	-0.171631	-0.436768	-0.154173	-0.217987	-0.023638	-0.963407
13091		4.028041	1.084284	8.766973	0.005174	-0.000492	-0.003709	-0.597656	-0.167480	-0.438965	-0.154229	-0.217990	-0.023624	-0.963398
13092		4.019363	1.066239	8.776427	0.009665	0.001186	-0.006830	-0.595459	-0.170410	-0.435547	-0.154228	-0.217983	-0.023689	-0.963398
13093		4.001909	1.114983	8.768193	0.009597	-0.002077	-0.006048	-0.591553	-0.159424	-0.441162	-0.154288	-0.218031	-0.023727	-0.963377
13094		4.009101	1.119494	8.779476	0.003941	-0.000505	-0.002733	-0.590576	-0.164307	-0.444092	-0.154076	-0.217989	-0.023759	-0.963419
13095		4.000961	1.102317	8.755382	-0.001992	0.001057	-0.000793	-0.587402	-0.167480	-0.435547	-0.153933	-0.217910	-0.023707	-0.963462
13096		3.985841	1.084028	8.793296	-0.002519	-0.003992	-0.001977	-0.587158	-0.162598	-0.441406	-0.153913	-0.217928	-0.023609	-0.963463
13097		4.029039	1.097210	8.788919	-0.001140	-0.002757	-0.003542	-0.592285	-0.166992	-0.438721	-0.153788	-0.217895	-0.023570	-0.963491
13098		4.016663	1.114499	8.784372	-0.001144	0.000385	-0.001379	-0.590576	-0.179688	-0.430908	-0.153735	-0.217863	-0.023499	-0.963509
13099		4.007159	1.079181	8.781549	-0.001806	-0.000311	-0.002365	-0.587158	-0.168213	-0.445068	-0.153971	-0.217893	-0.023352	-0.963468
13100		4.021674	1.085874	8.787754	0.000997	-0.002590	-0.003336	-0.584961	-0.166016	-0.437256	-0.153930	-0.217855	-0.023324	-0.963484
13101		4.016813	1.107373	8.777782	-0.001121	-0.002482	-0.002952	-0.592041	-0.170654	-0.433838	-0.153889	-0.217840	-0.023260	-0.963495
13102		3.988833	1.095782	8.748069	-0.000718	-0.001522	-0.002754	-0.602051	-0.172363	-0.443359	-0.153952	-0.217862	-0.023165	-0.963482
13103		4.002076	1.083862	8.792168	0.002308	-0.004617	-0.004118	-0.583008	-0.175293	-0.442871	-0.154016	-0.217915	-0.023109	-0.963461
13104		4.002848	1.078553	8.768465	0.001242	-0.006272	-0.005302	-0.586182	-0.172119	-0.442139	-0.154143	-0.217932	-0.023054	-0.963439
13105		4.026090	1.097365	8.775103	0.001850	-0.006404	-0.006086	-0.586182	-0.164062	-0.437744	-0.154225	-0.217960	-0.023013	-0.963420
13106		3.999222	1.091434	8.784809	0.002002	-0.007340	-0.003533	-0.592285	-0.170166	-0.443115	-0.154147	-0.218007	-0.022987	-0.963423
13107		3.975327	1.111703	8.762297	0.000950	-0.014297	-0.003740	-0.593994	-0.173828	-0.427734	-0.154170	-0.218139	-0.022916	-0.963391
13108		4.029899	1.050759	8.784548	0.001795	-0.020548	-0.003939	-0.588379	-0.171387	-0.443848	-0.154342	-0.218433	-0.022787	-0.963300
13109		4.042669	1.071234	8.789489	0.007453	-0.022119	-0.007264	-0.582520	-0.164795	-0.431152	-0.154403	-0.218654	-0.022793	-0.963240
13110		4.028860	1.109996	8.790010	0.001703	-0.018787	-0.004727	-0.588379	-0.167236	-0.426270	-0.154382	-0.218853	-0.022732	-0.963199
13111		4.031285	1.096685	8.759111	-0.001849	-0.012022	-0.002767	-0.595703	-0.179688	-0.435059	-0.154423	-0.219010	-0.022606	-0.963160
13112		4.040451	1.091328	8.763303	-0.004332	-0.012323	-0.001400	-0.587402	-0.166992	-0.427734	-0.154649	-0.219167	-0.022409	-0.963093
13113		4.049090	1.076616	8.778116	-0.006226	-0.013032	-0.001406	-0.594238	-0.167969	-0.438477	-0.154677	-0.219315	-0.022230	-0.963059
13114		4.058753	1.080587	8.771691	0.003262	-0.010197	-0.006095	-0.588623	-0.168457	-0.430664	-0.154707	-0.219416	-0.022199	-0.963031
13115		4.067650	1.086002	8.765436	0.004854	-0.006633	-0.005891	-0.587646	-0.159912	-0.428467	-0.154770	-0.219498	-0.022179	-0.963003
13116		4.054831	1.088457	8.764772	0.003963	-0.003370	-0.004318	-0.588623	-0.165527	-0.431396	-0.154667	-0.219530	-0.022181	-0.963012
13117		4.046780	1.069718	8.774113	0.004872	-0.000778	-0.005688	-0.586670	-0.171631	-0.442871	-0.154666	-0.219532	-0.022187	-0.963012
13118		4.033386	1.079762	8.780184	0.004407	0.000578	-0.005491	-0.581787	-0.165039	-0.437744	-0.154709	-0.219465	-0.022199	-0.963020
13119		4.040937	1.093724	8.764255	0.002308	0.000960	-0.004513	-0.596191	-0.168457	-0.438477	-0.154645	-0.219388	-0.022204	-0.963048
13120		4.044016	1.049935	8.772277	0.003861	0.003973	-0.005489	-0.587891	-0.173828	-0.434326	-0.154671	-0.219326	-0.022202	-0.963058
13121		4.058090	1.065887	8.784892	0.008422	0.001180	-0.005876	-0.587402	-0.174805	-0.438721	-0.154798	-0.219310	-0.022231	-0.963040
13122		4.038149	1.082621	8.768751	0.005518	-0.000358	-0.005294	-0.587402	-0.161621	-0.439209	-0.154919	-0.219286	-0.022228	-0.963026
13123		4.037697	1.084489	8.768728	0.006204	0.003050	-0.006273	-0.586670	-0.170410	-0.437988	-0.154801	-0.219197	-0.022297	-0.963064
13124		4.042481	1.065033	8.778539	0.004186	0.001393	-0.005099	-0.582764	-0.164062	-0.438232	-0.154845	-0.219145	-0.022298	-0.963069
13125		4.029487	1.083759	8.774088	0.004410	0.000576	-0.005493	-0.587646	-0.173340	-0.435303	-0.154767	-0.219078	-0.022332	-0.963096
13126		4.035424	1.072861	8.773069	0.004269	-0.000647	-0.004904	-0.595947	-0.167725	-0.443604	-0.154881	-0.219072	-0.022308	-0.963079
13127		4.049696	1.081028	8.779146	0.005502	-0.000635	-0.005885	-0.592773	-0.169922	-0.428467	-0.154868	-0.219044	-0.022333	-0.963087
13128		4.028972	1.088550	8.773732	0.005233	0.002774	-0.004508	-0.585693	-0.162109	-0.435059	-0.154951	-0.219042	-0.022316	-0.963075
13129		4.041498	1.080701	8.784457	0.006653	0.001417	-0.007061	-0.585693	-0.166260	-0.436523	-0.154872	-0.218992	-0.022378	-0.963097
13130		4.041169	1.084080	8.767548	0.007211	0.001444	-0.004309	-0.586426	-0.168213	-0.439941	-0.154827	-0.218943	-0.022426	-0.963115
13131		4.039464	1.071176	8.755162	0.007494	0.003891	-0.005488	-0.585205	-0.172119	-0.443848	-0.154816	-0.218854	-0.022485	-0.963135
13132		4.025778	1.089397	8.767705	0.007701	0.002798	-0.006470	-0.587891	-0.174805	-0.443848	-0.154869	-0.218764	-0.022542	-0.963146
13133		4.023794	1.075217	8.772252	0.006244	0.003601	-0.005098	-0.584961	-0.163574	-0.435059	-0.154962	-0.218675	-0.022565	-0.963150
13134		4.037535	1.092240	8.768210	0.004945	0.005905	-0.003725	-0.593018	-0.171387	-0.441162	-0.154868	-0.218571	-0.022600	-0.963188
13135		4.028991	1.088441	8.790747	0.004143	0.003983	-0.004120	-0.592041	-0.166748	-0.441650	-0.154911	-0.218499	-0.022596	-0.963198
13136		4.014287	1.091964	8.774158	0.004823	0.004958	-0.002547	-0.586182	-0.169678	-0.437012	-0.154844	-0.218404	-0.022617	-0.963230
13137		4.026668	1.083469	8.785053	0.002939	0.001100	-0.004711	-0.593262	-0.164795	-0.430908	-0.154880	-0.218360	-0.022599	-0.963234
13138		4.012588	1.086887	8.768189	0.004227	0.001944	-0.003923	-0.583252	-0.169678	-0.438232	-0.154849	-0.218353	-0.022592	-0.963241
13139		4.031992	1.081319	8.790641	0.005395	0.004272	-0.004512	-0.591309	-0.166260	-0.441650	-0.154867	-0.218262	-0.022616	-0.963258
13140		4.031861	1.099196	8.786590	0.004669	0.005889	-0.005104	-0.587402	-0.172852	-0.442383	-0.154823	-0.218154	-0.022646	-0.963289
13141		4.015794	1.086747	8.774497	0.005780	0.004955	-0.004905	-0.590820	-0.166992	-0.438477	-0.154890	-0.218056	-0.022667	-0.963300
13142		4.035696	1.097900	8.792755	0.007469	0.006760	-0.003920	-0.589600	-0.161377	-0.446045	-0.154852	-0.217959	-0.022719	-0.963327
13143		4.019692	1.093721	8.786976	0.010358	0.008022	-0.005095	-0.589355	-0.176270	-0.437012	-0.154681	-0.217805	-0.022852	-0.963386
13144		4.022567	1.062101	8.767894	0.013922	0.006834	-0.007445	-0.598389	-0.168945	-0.431641	-0.154844	-0.217739	-0.022954	-0.963372
13145		4.003102	1.110522	8.776939	0.014167	0.006295	-0.007249	-0.583008	-0.172607	-0.438477	-0.154899	-0.217721	-0.023063	-0.963365
13146		4.000768	1.098526	8.764770	0.007905	0.004848	-0.005297	-0.584961	-0.167725	-0.436279	-0.154967	-0.217635	-0.023109	-0.963372
13147		3.998180	1.083163	8.786421	0.006794	0.005780	-0.005498	-0.587402	-0.171143	-0.431152	-0.154961	-0.217545	-0.023156	-0.963392
13148		3.971597	1.111243	8.771356	0.000976	0.000273	-0.001768	-0.581543	-0.177490	-0.442383	-0.155017	-0.217549	-0.023084	-0.963384
13149		4.005366	1.096796	8.770648	-0.004696	-0.001585	-0.001188	-0.588135	-0.164551	-0.439209	-0.155139	-0.217504	-0.022946	-0.963378
13150		3.998071	1.083417	8.786439	-0.003393	-0.003889	-0.002558	-0.590820	-0.167236	-0.443848	-0.155064	-0.217504	-0.022857	-0.963392
13151		4.005709	1.079692	8.774543	-0.000160	-0.004927	-0.002746	-0.590576	-0.166748	-0.438232	-0.155018	-0.217514	-0.022801	-0.963399
13152		4.013362	1.073531	8.796219	-0.002823	-0.007006	-0.001962	-0.591553	-0.173584	-0.433838	-0.154987	-0.217568	-0.022696	-0.963394
13153		3.994471	1.080686	8.773305	0.001024	-0.005748	-0.005495	-0.593750	-0.176270	-0.439453	-0.155135	-0.217648	-0.022613	-0.963354
13154		4.008424	1.063225	8.793922	0.002847	-0.008574	-0.005291	-0.589111	-0.167236	-0.441162	-0.155304	-0.217751	-0.022545	-0.963305
13155		4.011830	1.089113	8.777934	0.000760	-0.007915	-0.003723	-0.584229	-0.165039	-0.443359	-0.155280	-0.217804	-0.022494	-0.963298
13156		4.013229	1.088375	8.794032	0.000535	-0.007099	-0.003332	-0.588623	-0.164795	-0.440430	-0.155192	-0.217817	-0.022460	-0.963310
13157		4.014770	1.089433	8.776550	-0.004559	-0.006220	-0.001966	-0.585938	-0.172852	-0.433105	-0.155121	-0.217837	-0.022350	-0.963320
13158		4.021073	1.060150	8.779646	-0.003306	-0.005930	-0.002358	-0.585938	-0.169189	-0.436523	-0.155228	-0.217895	-0.022215	-0.963292
13159		4.030619	1.078871	8.786146	-0.001342	-0.007534	-0.002746	-0.588379	-0.167725	-0.435547	-0.155255	-0.217954	-0.022122	-0.963277
13160		4.017667	1.072468	8.779264	0.000450	-0.005060	-0.003533	-0.586426	-0.166016	-0.442871	-0.155269	-0.217995	-0.022058	-0.963267
13161		4.005066	1.073805	8.778623	0.000293	-0.006560	-0.003532	-0.595947	-0.170654	-0.434570	-0.155217	-0.218012	-0.022013	-0.963273
13162		4.019256	1.057500	8.782335	0.003215	-0.008168	-0.006279	-0.593018	-0.161133	-0.433105	-0.155327	-0.218127	-0.021961	-0.963230
13163		4.043214	1.085813	8.777985	0.004902	-0.006362	-0.005296	-0.587158	-0.165527	-0.438965	-0.155251	-0.218206	-0.021967	-0.963224
13164		4.022686	1.076500	8.776472	0.001582	-0.003287	-0.005304	-0.595215	-0.168945	-0.429199	-0.155227	-0.218203	-0.021942	-0.963229
13165		4.022385	1.062387	8.763651	0.002730	-0.003664	-0.003926	-0.586182	-0.166260	-0.446289	-0.155294	-0.218282	-0.021885	-0.963202
13166		4.010404	1.079345	8.775506	0.003478	-0.005002	-0.002744	-0.587402	-0.171631	-0.442871	-0.155216	-0.218268	-0.021885	-0.963217
13167		4.011428	1.079147	8.791723	0.003061	-0.006242	-0.003530	-0.585205	-0.170654	-0.438232	-0.155261	-0.218297	-0.021852	-0.963205
13168		3.985104	1.068054	8.761320	0.002019	-0.013483	-0.004309	-0.581055	-0.165527	-0.439209	-0.155319	-0.218422	-0.021792	-0.963168
13169		4.027480	1.040486	8.791968	0.006019	-0.013151	-0.005291	-0.591797	-0.167480	-0.439941	-0.155277	-0.218526	-0.021809	-0.963151
13170		4.045503	1.067118	8.775372	0.011028	-0.011990	-0.006864	-0.594482	-0.172607	-0.437744	-0.155285	-0.218656	-0.021875	-0.963119
13171		4.035901	1.103070	8.765148	0.006507	-0.008373	-0.004708	-0.588379	-0.167725	-0.433350	-0.155378	-0.218759	-0.021862	-0.963081
13172		4.050003	1.086233	8.785638	0.003689	-0.006098	-0.003728	-0.592041	-0.161133	-0.445312	-0.155389	-0.218822	-0.021835	-0.963065
13173		4.049064	1.054819	8.793911	0.003463	-0.005282	-0.003336	-0.589600	-0.173096	-0.441895	-0.155237	-0.218822	-0.021847	-0.963089
13174		4.036888	1.067203	8.765734	0.007236	-0.004132	-0.003928	-0.595215	-0.168945	-0.428955	-0.155303	-0.218841	-0.021862	-0.963074
13175		4.037038	1.061814	8.758989	0.007721	-0.002782	-0.006094	-0.589844	-0.160889	-0.434570	-0.155377	-0.218914	-0.021876	-0.963045
13176		4.037716	1.070239	8.781662	0.005738	-0.001458	-0.006293	-0.588867	-0.176758	-0.430420	-0.155288	-0.218911	-0.021915	-0.963059
13177		4.044697	1.074688	8.793038	0.004153	0.000829	-0.006296	-0.583984	-0.164795	-0.438477	-0.155491	-0.218919	-0.021876	-0.963026
13178		4.031056	1.087256	8.765496	0.006726	0.002524	-0.004726	-0.596436	-0.172607	-0.436523	-0.155423	-0.218842	-0.021931	-0.963053
13179		4.021948	1.068414	8.775560	0.001767	0.004623	-0.003942	-0.584717	-0.170898	-0.443359	-0.155517	-0.218789	-0.021882	-0.963051
13180		4.014388	1.074091	8.770541	0.002221	0.002989	-0.004727	-0.581787	-0.168213	-0.437988	-0.155549	-0.218688	-0.021869	-0.963069
13181		4.013170	1.067940	8.764524	0.005840	0.002639	-0.005317	-0.584961	-0.174072	-0.440186	-0.155549	-0.218611	-0.021904	-0.963086
13182		4.013656	1.085139	8.776847	0.008018	-0.000060	-0.006689	-0.586670	-0.159912	-0.435303	-0.155659	-0.218579	-0.021941	-0.963074
13183		4.020527	1.082597	8.781800	0.006702	-0.003891	-0.006092	-0.593018	-0.169189	-0.438232	-0.155539	-0.218597	-0.021995	-0.963088
13184		4.040419	1.064633	8.757578	0.002783	-0.000407	-0.004721	-0.587158	-0.170410	-0.448242	-0.155572	-0.218585	-0.021970	-0.963086
13185		4.027598	1.082970	8.752941	0.004314	-0.000097	-0.003739	-0.593506	-0.164062	-0.443115	-0.155564	-0.218512	-0.021980	-0.963104
13186		4.040534	1.073042	8.780502	0.000468	0.001069	-0.002757	-0.592773	-0.160889	-0.437500	-0.155473	-0.218451	-0.021950	-0.963133
13187		4.011848	1.060378	8.768097	0.002801	-0.000128	-0.004132	-0.585449	-0.169189	-0.440186	-0.155359	-0.218427	-0.021952	-0.963157
13188		4.019857	1.079793	8.791808	0.007274	-0.001149	-0.005312	-0.587891	-0.160156	-0.443848	-0.155377	-0.218403	-0.021990	-0.963159
13189		4.020144	1.081577	8.791457	0.004371	-0.002694	-0.004717	-0.590576	-0.160400	-0.433105	-0.155229	-0.218370	-0.022025	-0.963189
13190		4.026606	1.070296	8.790358	0.002072	-0.000938	-0.002163	-0.586914	-0.178467	-0.431641	-0.155095	-0.218367	-0.022008	-0.963212
13191		4.012869	1.071815	8.790238	0.001566	-0.000141	-0.003148	-0.588379	-0.171143	-0.442871	-0.155286	-0.218377	-0.021927	-0.963181
13192		4.020783	1.085206	8.774033	0.002544	-0.002294	-0.002357	-0.581787	-0.173828	-0.440918	-0.155311	-0.218359	-0.021892	-0.963182
13193		4.020180	1.069994	8.778225	0.004406	-0.002136	-0.003539	-0.591064	-0.163330	-0.435547	-0.155394	-0.218335	-0.021875	-0.963174
13194		4.020888	1.078829	8.784135	0.003917	-0.001060	-0.003935	-0.593506	-0.168213	-0.442871	-0.155324	-0.218333	-0.021878	-0.963186
13195		4.026340	1.052450	8.770724	0.002022	-0.001776	-0.003932	-0.587646	-0.171387	-0.432617	-0.155321	-0.218318	-0.021847	-0.963190
13196		4.001196	1.086240	8.778222	0.001504	-0.003681	-0.002944	-0.591553	-0.166992	-0.435059	-0.155392	-0.218358	-0.021783	-0.963171
13197		3.993274	1.050361	8.791949	0.001027	-0.008463	-0.003522	-0.591064	-0.166016	-0.436035	-0.155393	-0.218448	-0.021720	-0.963152
13198		4.036544	1.041826	8.784532	0.008384	-0.014353	-0.006662	-0.585449	-0.165527	-0.433838	-0.155394	-0.218615	-0.021749	-0.963113
13199		4.054472	1.070308	8.750900	0.013962	-0.010446	-0.007466	-0.585938	-0.166260	-0.441650	-0.155382	-0.218736	-0.021859	-0.963085
13200		4.036832	1.098822	8.796792	0.003822	-0.005159	-0.004911	-0.579834	-0.172852	-0.438965	-0.155352	-0.218743	-0.021858	-0.963088
13201		4.049106	1.060657	8.765506	-0.001786	-0.002476	0.000796	-0.592285	-0.177490	-0.437988	-0.155388	-0.218712	-0.021758	-0.963092
13202		4.695756	0.961034	8.449649	-0.015924	-0.018363	0.004591	-0.580566	-0.167969	-0.437988	-0.155507	-0.218892	-0.021418	-0.963040
13203		4.295681	0.925235	8.704449	-0.003765	-0.009715	0.002388	-0.594238	-0.164062	-0.438965	-0.155453	-0.218944	-0.021289	-0.963039
13204		4.041813	1.019050	8.731118	0.003447	-0.020543	-0.003503	-0.588379	-0.171143	-0.436523	-0.155398	-0.219167	-0.021245	-0.962998
13205		4.193250	1.048735	8.714252	0.007035	-0.021450	-0.005281	-0.583008	-0.169434	-0.426270	-0.155478	-0.219411	-0.021223	-0.962930
13206		4.232227	1.047890	8.649696	-0.001273	-0.021691	-0.000543	-0.589355	-0.166260	-0.432129	-0.155521	-0.219667	-0.021084	-0.962868
13207		4.130416	0.983811	8.670717	-0.006524	-0.031164	0.002043	-0.590332	-0.170654	-0.440918	-0.155484	-0.220013	-0.020871	-0.962800
13208		4.323381	0.918958	8.667427	-0.007356	-0.061197	-0.001259	-0.592041	-0.166748	-0.443115	-0.155546	-0.220688	-0.020596	-0.962641
13209		4.173167	1.068016	8.693582	0.013631	-0.065391	-0.008822	-0.593994	-0.162598	-0.437256	-0.155571	-0.221438	-0.020601	-0.962465
13210		4.317209	1.052901	8.634348	-0.005505	-0.063869	0.002455	-0.596924	-0.154785	-0.431641	-0.155456	-0.222153	-0.020356	-0.962324
13211		4.305743	0.990782	8.657962	-0.005952	-0.053395	0.002038	-0.596191	-0.159668	-0.436523	-0.155234	-0.222757	-0.020145	-0.962225
13212		4.193960	1.022922	8.638560	0.001399	-0.047742	-0.004317	-0.603271	-0.162354	-0.436768	-0.155137	-0.223285	-0.020041	-0.962120
13213		4.173888	0.960157	8.685036	0.018013	-0.056116	-0.012699	-0.597900	-0.164551	-0.440186	-0.155139	-0.223963	-0.020131	-0.961960
13214		4.301578	1.015798	8.685532	0.033752	-0.075766	-0.014994	-0.599365	-0.169678	-0.432861	-0.155156	-0.224875	-0.020381	-0.961739
13215		4.416185	1.045760	8.625554	0.031241	-0.085887	-0.011267	-0.612549	-0.164795	-0.424561	-0.155224	-0.225939	-0.020546	-0.961475
13216		4.348191	1.107386	8.648512	0.021051	-0.084263	-0.005501	-0.599365	-0.167725	-0.430420	-0.155175	-0.227020	-0.020580	-0.961228
13217		4.448393	1.001021	8.613507	0.021112	-0.077570	-0.003568	-0.604004	-0.165527	-0.431885	-0.155137	-0.227957	-0.020627	-0.961011
13218		4.322012	1.050431	8.609851	0.023665	-0.073275	-0.001068	-0.606689	-0.161377	-0.426025	-0.155017	-0.228843	-0.020716	-0.960818
13219		4.393900	1.034579	8.620791	0.021103	-0.087508	0.001688	-0.607910	-0.167236	-0.422363	-0.154816	-0.229915	-0.020746	-0.960594
13220		4.418976	1.011144	8.613756	0.027676	-0.095754	0.000373	-0.614502	-0.171631	-0.422852	-0.154705	-0.231115	-0.020823	-0.960322
13221		4.510702	1.053301	8.580514	0.022325	-0.098013	0.004737	-0.614746	-0.165039	-0.416748	-0.154611	-0.232345	-0.020804	-0.960041
13222		4.276153	1.107001	8.674072	0.025913	-0.108861	0.008163	-0.609375	-0.162109	-0.416260	-0.154380	-0.233720	-0.020814	-0.959744
13223		4.429449	1.055766	8.573621	0.016775	-0.145456	0.016887	-0.618896	-0.171631	-0.416748	-0.154042	-0.235492	-0.020632	-0.959369
13224		4.615074	1.108949	8.518144	0.009684	-0.207178	0.029406	-0.621582	-0.165771	-0.407471	-0.153713	-0.238013	-0.020179	-0.958809
13225		4.592777	1.092696	8.517565	-0.000583	-0.222785	0.042373	-0.621338	-0.157959	-0.403564	-0.153195	-0.240720	-0.019546	-0.958229
13226		4.482194	1.139281	8.587566	-0.005561	-0.214393	0.052522	-0.625488	-0.164062	-0.407715	-0.152481	-0.243304	-0.018859	-0.957704
13227		4.710645	0.988284	8.483143	-0.003646	-0.217512	0.063436	-0.634766	-0.155273	-0.398193	-0.151710	-0.245912	-0.018143	-0.957174
13228		4.642186	1.141440	8.489803	-0.005199	-0.243445	0.076846	-0.646484	-0.158691	-0.401123	-0.150693	-0.248857	-0.017333	-0.956588
13229		4.762804	1.165960	8.448186	-0.043660	-0.263833	0.102445	-0.639404	-0.153076	-0.394043	-0.149545	-0.251965	-0.015936	-0.955979
13230		4.885714	1.080288	8.386959	-0.079118	-0.273251	0.127433	-0.638916	-0.148682	-0.393066	-0.148221	-0.255096	-0.014022	-0.955385
13231		4.733289	1.165183	8.491895	-0.101767	-0.300887	0.147967	-0.645508	-0.144531	-0.380615	-0.146745	-0.258496	-0.011720	-0.954729
13232		4.541441	0.939903	8.559495	-0.102780	-0.387163	0.170102	-0.661377	-0.142822	-0.374268	-0.145026	-0.262935	-0.009172	-0.953807
13233		4.831914	0.478038	8.447951	-0.054130	-0.531436	0.164270	-0.658447	-0.148193	-0.371338	-0.143243	-0.269171	-0.006959	-0.952355
13234		4.688263	0.551048	8.631360	0.025147	-0.709286	0.118902	-0.663574	-0.149414	-0.346680	-0.141774	-0.277630	-0.005516	-0.950153
13235		4.706325	0.776086	8.683494	0.070824	-0.953508	0.089952	-0.677734	-0.136230	-0.326904	-0.140490	-0.289042	-0.004281	-0.946942
13236		4.034723	1.276364	9.158862	0.147391	-1.396704	0.119203	-0.696777	-0.134766	-0.306885	-0.138559	-0.305765	-0.003072	-0.941966
13237		5.386145	1.663220	8.971810	0.331564	-2.022875	0.273979	-0.703125	-0.133057	-0.259033	-0.134060	-0.330031	-0.002356	-0.934399
13238		7.609857	2.279052	9.468130	0.394291	-2.097893	0.340408	-0.725342	-0.131104	-0.221680	-0.128435	-0.355049	-0.001973	-0.925981
13239		6.948884	0.034190	8.815228	0.172627	-1.779497	0.400757	-0.740723	-0.132324	-0.189453	-0.123003	-0.375805	0.000729	-0.918499
13240		2.015793	4.487284	13.512314	0.222315	-0.671298	0.222219	-0.738037	-0.126465	-0.174316	-0.119363	-0.383803	0.000321	-0.915668
13241		-1.423941	2.645507	12.890855	0.108221	0.480353	-0.153287	-0.741211	-0.139160	-0.188721	-0.120552	-0.378420	-0.002316	-0.917747
13242		-1.526993	1.820917	12.337022	0.049306	1.514692	-0.123621	-0.719482	-0.133545	-0.215820	-0.121615	-0.361000	-0.005704	-0.924584
13243		-0.413730	1.224983	11.259160	-0.154685	2.409736	0.033328	-0.697998	-0.133057	-0.265137	-0.121635	-0.332702	-0.007391	-0.935125
13244		1.022140	1.481023	10.138450	-0.274556	2.845767	0.063370	-0.675537	-0.139648	-0.322754	-0.121622	-0.298759	-0.008208	-0.946511
13245		3.456351	2.348770	8.574668	-0.259731	2.837558	-0.218349	-0.634033	-0.143555	-0.370361	-0.124728	-0.264518	-0.010232	-0.956226
13246		6.274504	2.592173	6.820948	-0.416526	2.385412	-0.660813	-0.611816	-0.149658	-0.411621	-0.133551	-0.235076	-0.011130	-0.962694
13247		10.347303	1.594747	6.236023	-0.324762	1.877873	-0.932506	-0.580078	-0.159912	-0.447021	-0.145322	-0.211657	-0.013073	-0.966391
13248		12.458915	0.086146	4.738531	0.038072	1.587853	-0.841851	-0.561523	-0.175049	-0.458496	-0.155000	-0.192289	-0.018618	-0.968841
13249		12.574033	-0.281058	3.125696	0.309289	1.162031	-0.482566	-0.542725	-0.181885	-0.478760	-0.159722	-0.178624	-0.025743	-0.970525
13250		11.802069	0.366138	2.309279	0.369854	0.604420	-0.159497	-0.534912	-0.187256	-0.480957	-0.160552	-0.171924	-0.031754	-0.971420
13251		10.627574	6.075875	2.368141	-0.156446	-0.019357	0.045388	-0.532471	-0.194336	-0.486572	-0.160275	-0.171826	-0.029673	-0.971549
13252		6.516225	-5.010075	9.960084	-1.773072	-0.768193	-0.120074	-0.543213	-0.169189	-0.485596	-0.165702	-0.177476	-0.006816	-0.970051
13253		1.881236	-8.497239	11.150898	-0.792275	-0.609496	0.488548	-0.553711	-0.145264	-0.477295	-0.161516	-0.183221	0.005191	-0.969699
13254		4.203969	3.248767	9.897276	-0.121958	-1.009410	0.282356	-0.569092	-0.139404	-0.461182	-0.158264	-0.195145	0.009428	-0.967875
13255		5.349222	-3.839766	10.233650	0.005795	-0.860932	-0.072215	-0.580078	-0.144287	-0.450439	-0.158976	-0.205539	0.010953	-0.965588
13256		5.759901	1.692792	9.431724	0.171098	-0.628650	0.019212	-0.570801	-0.139648	-0.439453	-0.158191	-0.213427	0.010265	-0.964012
13257		5.314433	3.126383	8.791747	-0.336512	-0.179013	0.109732	-0.587402	-0.134766	-0.439697	-0.157717	-0.214873	0.015045	-0.963706
13258		5.194226	1.921385	8.935154	-0.721693	0.132444	0.256016	-0.579834	-0.131104	-0.446289	-0.156558	-0.211768	0.024237	-0.964394
13259		4.538585	-0.522280	8.921746	-0.593053	0.203287	0.246605	-0.578613	-0.112305	-0.450684	-0.155176	-0.208046	0.031708	-0.965211
13260		3.890821	-0.634730	9.006504	-0.334840	0.062409	0.171033	-0.580078	-0.110352	-0.467041	-0.153973	-0.206544	0.036142	-0.965570
13261		4.080813	-1.091815	8.851600	-0.118154	-0.088528	0.062382	-0.587402	-0.101074	-0.460205	-0.153453	-0.207327	0.037970	-0.965415
13262		4.111969	-0.432560	8.840496	0.041029	-0.142597	-0.016929	-0.586670	-0.098633	-0.457031	-0.153455	-0.209105	0.037779	-0.965038
13263		4.506074	0.000388	8.613130	0.037313	-0.122544	-0.005229	-0.586182	-0.096191	-0.452148	-0.153336	-0.210628	0.037626	-0.964732
13264		4.285120	0.010495	8.717552	0.018853	-0.061289	-0.005487	-0.583252	-0.103271	-0.461182	-0.153296	-0.211377	0.037577	-0.964577
13265		4.152871	-0.068706	8.817763	-0.011196	-0.042737	0.002055	-0.586670	-0.087646	-0.450439	-0.153252	-0.211841	0.037873	-0.964470
13266		4.584854	-0.034719	8.637432	-0.043178	-0.036148	0.016800	-0.589600	-0.094971	-0.450195	-0.153120	-0.212157	0.038583	-0.964394
13267		4.489439	0.112468	8.677963	-0.083645	0.022770	0.025998	-0.586914	-0.085938	-0.463135	-0.153013	-0.211682	0.039692	-0.964470
13268		4.301975	-0.087014	8.787622	-0.108119	0.053838	0.038831	-0.598877	-0.081055	-0.463867	-0.152828	-0.210778	0.041069	-0.964640
13269		4.511850	-0.487279	8.672416	-0.091183	0.069043	0.024020	-0.592285	-0.093262	-0.463623	-0.152786	-0.209731	0.042175	-0.964827
13270		4.011975	-0.368467	8.840002	-0.028190	0.058728	0.006335	-0.599609	-0.077148	-0.468018	-0.152788	-0.208937	0.042494	-0.964985
13271		4.061914	-0.383902	8.810442	0.025818	-0.023775	-0.002614	-0.600342	-0.074219	-0.465820	-0.152714	-0.209247	0.042297	-0.964938
13272		4.168010	-0.396663	8.766692	0.077914	-0.081461	-0.018063	-0.603516	-0.078857	-0.464600	-0.152659	-0.210359	0.041542	-0.964737
13273		4.253902	-0.253415	8.745509	0.119286	-0.105835	-0.036835	-0.610840	-0.074463	-0.464600	-0.152710	-0.211854	0.040285	-0.964456
13274		4.287998	0.005816	8.726326	0.092167	-0.094377	-0.032033	-0.616943	-0.079346	-0.447998	-0.152779	-0.213156	0.039347	-0.964196
13275		4.411040	-0.091934	8.616300	0.056000	-0.058835	-0.020078	-0.626465	-0.083252	-0.451660	-0.152819	-0.213954	0.038807	-0.964035
13276		4.584245	-0.247903	8.610575	0.038267	-0.003293	-0.015957	-0.639648	-0.085205	-0.443359	-0.152883	-0.214048	0.038387	-0.964021
13277		4.436511	-0.028895	8.710068	0.024871	0.070442	-0.019849	-0.642822	-0.093018	-0.445312	-0.153065	-0.213229	0.037977	-0.964190
13278		4.537089	-0.075984	8.569788	0.005727	0.153909	-0.013206	-0.637695	-0.088867	-0.439941	-0.153258	-0.211364	0.037655	-0.964583
13279		4.135576	-0.029502	8.807248	-0.020990	0.162096	0.009650	-0.638184	-0.096924	-0.439453	-0.153249	-0.209338	0.037701	-0.965024
13280		3.933328	-0.153173	8.736731	0.000043	0.132564	-0.004559	-0.640381	-0.096924	-0.431152	-0.153342	-0.207714	0.037511	-0.965367
13281		4.045189	-0.117563	8.840098	0.018083	0.077715	-0.001765	-0.644287	-0.105713	-0.434814	-0.153328	-0.206785	0.037217	-0.965580
13282		3.951421	0.006096	8.815563	0.002588	0.043000	0.008509	-0.652588	-0.109619	-0.434082	-0.153214	-0.206241	0.037202	-0.965715
13283		3.897477	-0.023956	8.834517	-0.013239	-0.013028	0.020267	-0.655762	-0.110840	-0.429688	-0.152973	-0.206337	0.037516	-0.965721
13284		3.966944	-0.066111	8.887431	-0.022929	-0.075160	0.033980	-0.639893	-0.117188	-0.425293	-0.152561	-0.207158	0.038100	-0.965587
13285		4.073378	-0.141575	8.785501	-0.018701	-0.128989	0.029092	-0.642334	-0.117676	-0.416260	-0.152172	-0.208638	0.038723	-0.965305
13286		4.186419	-0.110100	8.805984	-0.021001	-0.174070	0.043663	-0.647949	-0.126221	-0.407715	-0.151589	-0.210650	0.039498	-0.964929
13287		4.078429	-0.032731	8.835941	-0.036808	-0.218825	0.064767	-0.643066	-0.128174	-0.403564	-0.150771	-0.213160	0.040603	-0.964460
13288		3.945130	-0.004919	8.884417	-0.016151	-0.348164	0.063880	-0.646973	-0.139404	-0.397949	-0.149840	-0.217265	0.041700	-0.963641
13289		3.963851	-0.555858	8.960785	0.040215	-0.529633	0.067610	-0.650391	-0.134277	-0.401123	-0.148611	-0.223653	0.042466	-0.962336
13290		3.942808	-0.954462	9.033715	0.282723	-0.745465	-0.063291	-0.651855	-0.143799	-0.380371	-0.148154	-0.233141	0.040349	-0.960244
13291		3.969421	-0.762432	9.226764	0.435766	-1.126312	-0.185644	-0.655518	-0.149414	-0.358398	-0.148504	-0.247505	0.036738	-0.956733
13292		3.993783	0.245179	9.277726	0.430081	-1.596812	-0.211960	-0.671875	-0.156982	-0.339111	-0.148922	-0.267415	0.033977	-0.951397
13293		4.495753	0.748147	8.999754	0.307622	-2.016123	-0.159033	-0.674805	-0.160156	-0.298340	-0.148859	-0.291913	0.033610	-0.944192
13294		5.091034	0.456423	8.690405	0.213757	-2.373275	-0.106304	-0.700439	-0.166748	-0.252930	-0.148248	-0.320203	0.035181	-0.935016
13295		5.331944	0.541085	8.525131	0.166167	-2.717148	-0.061631	-0.718994	-0.162354	-0.196533	-0.147000	-0.352073	0.038088	-0.923572
13296		6.239475	0.708407	8.095081	-0.072297	-3.064741	0.050015	-0.722656	-0.154053	-0.143555	-0.145153	-0.387000	0.044825	-0.909479
13297		7.455753	0.973318	8.319500	-0.311718	-3.433096	0.201117	-0.742188	-0.157471	-0.077881	-0.142296	-0.424947	0.055607	-0.892233
13298		7.985585	1.515525	8.511273	-0.407837	-3.718988	0.400833	-0.754150	-0.154297	-0.013672	-0.137231	-0.464903	0.068912	-0.871942
13299		9.300518	2.168386	8.750011	-0.397558	-4.023974	0.734677	-0.758301	-0.135498	0.071045	-0.127871	-0.506781	0.084395	-0.848351
13300		9.517744	0.916652	9.057310	-0.152654	-4.266985	1.126267	-0.753662	-0.115967	0.165283	-0.112184	-0.549769	0.099899	-0.821699
13301		10.529871	-0.651071	9.049864	0.555578	-4.157641	1.250476	-0.736816	-0.095703	0.244141	-0.090152	-0.590812	0.108523	-0.794378
13302		11.599521	2.499681	6.935382	0.711808	-3.599384	1.530267	-0.722656	-0.058105	0.316895	-0.064698	-0.624500	0.116732	-0.769537
13303		11.693506	2.070854	19.018629	0.732535	-1.109789	1.416691	-0.713135	-0.030518	0.347168	-0.043695	-0.633480	0.121651	-0.762885
13304		-0.465114	5.391866	11.628125	0.323454	1.241007	1.154740	-0.733154	0.002441	0.307861	-0.031967	-0.619880	0.127024	-0.773687
13305		-0.696421	1.686025	9.171514	0.369224	1.625372	0.582459	-0.742920	0.027344	0.290527	-0.025998	-0.603189	0.127282	-0.786947
13306		0.620244	2.695345	9.844931	0.894230	2.513359	-0.207851	-0.760254	0.029297	0.234375	-0.025226	-0.578705	0.116019	-0.806848
13307		1.433306	2.314292	9.686939	0.442221	3.313433	-0.861059	-0.776611	0.024170	0.162354	-0.035416	-0.546089	0.104155	-0.830472
